File: Data/RFB/OGO2024_flow battery 3_cycling_6 mM ethoxyAB + DBBB + 200 mM TBAPF6 in MeCN_02_CV_C05.txt
time/s;Ewe/V;Energy charge/W.h;Energy discharge/W.h;Q discharge/mA.h;Q charge/mA.h;cycle number;
0.000000000000000E+000;-0.0419972;0.000000000000000E+000;0.000000000000000E+000;0.000000000000000E+000;0.000000000000000E+000;0.000000000000000E+000
34.0002;2.70826;0.000455995;0.000000000000000E+000;0.000000000000000E+000;0.169996;0.000000000000000E+000
80.0002;2.78188;0.00135053;0.000000000000000E+000;0.000000000000000E+000;0.495808;0.000000000000000E+000
126;2.88158;0.00226976;0.000000000000000E+000;0.000000000000000E+000;0.821618;0.000000000000000E+000
166.497;2.99947;0.00298348;0.000000000000000E+000;0.000000000000000E+000;1.06236;0.000000000000000E+000
209.546;2.91191;0.00340672;0.000000000000000E+000;0.000000000000000E+000;1.20347;0.000000000000000E+000
248.498;2.51093;0.00340672;-0.000613602;0.24087;0.000000000000000E+000;0.000000000000000E+000
294.498;1.95451;0.00340672;-0.00138748;0.566752;0.000000000000000E+000;0.000000000000000E+000
335.23;0.999225;0.00340672;-0.00168506;0.78411;0.000000000000000E+000;0.000000000000000E+000
381.23;0.999187;0.00340672;-0.00173936;0.838451;0.000000000000000E+000;0.000000000000000E+000
416.231;2.71636;0.000494528;0.000000000000000E+000;0.000000000000000E+000;0.184163;1
462.231;2.79517;0.00139165;0.000000000000000E+000;0.000000000000000E+000;0.509979;1
508.231;2.9438;0.00232079;0.000000000000000E+000;0.000000000000000E+000;0.83579;1
549.412;2.99939;0.00282185;0.000000000000000E+000;0.000000000000000E+000;1.00284;1
584.413;2.52369;0.00284961;-0.000471209;0.184196;0.000000000000000E+000;1
630.413;2.09436;0.00284961;-0.00125984;0.510082;0.000000000000000E+000;1
671.003;0.999187;0.00284961;-0.00164422;0.766352;0.000000000000000E+000;1
717.003;0.999053;0.00284961;-0.00172979;0.851993;0.000000000000000E+000;1
755.052;1.51315;0.00284961;-0.00176113;0.883357;0.000000000000000E+000;1
798.004;2.72031;0.000798718;0.000000000000000E+000;0.000000000000000E+000;0.297489;2
844.004;2.80687;0.00170072;0.000000000000000E+000;0.000000000000000E+000;0.623302;2
884.607;2.99945;0.00252375;0.000000000000000E+000;0.000000000000000E+000;0.908478;2
924.656;2.81241;0.00286701;0.000000000000000E+000;0.000000000000000E+000;1.02292;2
966.608;2.49039;0.00286701;-0.00071893;0.283375;0.000000000000000E+000;2
1012.61;1.70859;0.00286701;-0.00142239;0.609258;0.000000000000000E+000;2
1054.49;0.999282;0.00286701;-0.00166171;0.811549;0.000000000000000E+000;2
1100.49;0.999187;0.00286701;-0.00173586;0.885762;0.000000000000000E+000;2
1135.49;2.64257;0.000186651;0.000000000000000E+000;0.000000000000000E+000;0.0708345;3
1181.49;2.74251;0.00106691;0.000000000000000E+000;0.000000000000000E+000;0.396648;3
1227.49;2.84383;0.00197497;0.000000000000000E+000;0.000000000000000E+000;0.722456;3
1267.93;2.99945;0.00270921;0.000000000000000E+000;0.000000000000000E+000;0.973083;3
1302.93;2.57078;0.00286859;-0.000109293;0.0425079;0.000000000000000E+000;3
1348.93;2.32844;0.00286859;-0.000921809;0.368385;0.000000000000000E+000;3
1393.39;0.99869;0.00286859;-0.00149791;0.683356;0.000000000000000E+000;3
1435.4;0.999149;0.00286859;-0.00165454;0.840113;0.000000000000000E+000;3
1481.4;0.999244;0.00286859;-0.0017254;0.911034;0.000000000000000E+000;3
1517.4;2.68621;0.000449811;0.000000000000000E+000;0.000000000000000E+000;0.169996;4
1563.4;2.75863;0.0013367;0.000000000000000E+000;0.000000000000000E+000;0.495809;4
1609.4;2.8895;0.00225651;0.000000000000000E+000;0.000000000000000E+000;0.82162;4
1651.01;2.99943;0.00282733;0.000000000000000E+000;0.000000000000000E+000;1.01278;4
1686.01;2.48193;0.0028747;-0.000392519;0.155857;0.000000000000000E+000;4
1732.01;1.84114;0.0028747;-0.00111921;0.48174;0.000000000000000E+000;4
1772.37;0.99911;0.0028747;-0.00143864;0.729562;0.000000000000000E+000;4
1818.37;0.999206;0.0028747;-0.00154887;0.839888;0.000000000000000E+000;4
1854.37;2.61521;7.38249e-05;0.000000000000000E+000;0.000000000000000E+000;0.0283357;5
1900.37;2.744;0.000951888;0.000000000000000E+000;0.000000000000000E+000;0.354155;5
1946.37;2.83045;0.0018593;0.000000000000000E+000;0.000000000000000E+000;0.679971;5
1986.41;2.99943;0.00262303;0.000000000000000E+000;0.000000000000000E+000;0.941544;5
2022.41;2.65713;0.00284617;-7.48825e-09;2.81817e-06;0.000000000000000E+000;5
2068.41;2.16679;0.00284617;-0.000789171;0.325881;0.000000000000000E+000;5
2108.95;0.999149;0.00284617;-0.00123508;0.610175;0.000000000000000E+000;5
2154.95;0.999053;0.00284617;-0.00139708;0.772301;0.000000000000000E+000;5
2198.95;0.999149;0.00284617;-0.0014725;0.847786;0.000000000000000E+000;5
2235.95;2.71437;0.000600178;0.000000000000000E+000;0.000000000000000E+000;0.226659;6
2281.95;2.79759;0.0014968;0.000000000000000E+000;0.000000000000000E+000;0.552475;6
2322.86;2.99943;0.00232611;0.000000000000000E+000;0.000000000000000E+000;0.842058;6
2366.86;2.99928;0.00273512;0.000000000000000E+000;0.000000000000000E+000;0.978421;6
2403.86;2.34444;0.00273512;-0.000553486;0.226697;0.000000000000000E+000;6
2446.58;0.999588;0.00273512;-0.00107229;0.529328;0.000000000000000E+000;6
2490.58;0.999263;0.00273512;-0.0012611;0.718297;0.000000000000000E+000;6
2536.58;0.999225;0.00273512;-0.00135522;0.812492;0.000000000000000E+000;6
2572.58;2.69473;0.000477063;0.000000000000000E+000;0.000000000000000E+000;0.184161;7
2618.58;2.77575;0.00136777;0.000000000000000E+000;0.000000000000000E+000;0.509976;7
2658.66;2.99941;0.00217399;0.000000000000000E+000;0.000000000000000E+000;0.79382;7
2704.66;2.99945;0.00261415;0.000000000000000E+000;0.000000000000000E+000;0.940567;7
2740.66;2.26893;0.00261873;-0.000511372;0.212531;0.000000000000000E+000;7
2781.25;0.999206;0.00261873;-0.000970232;0.500122;0.000000000000000E+000;7
2827.25;0.999149;0.00261873;-0.00116603;0.696082;0.000000000000000E+000;7
2873.25;0.99913;0.00261873;-0.00126178;0.791913;0.000000000000000E+000;7
2909.25;2.68444;0.000507291;0.000000000000000E+000;0.000000000000000E+000;0.198326;8
2955.25;2.779;0.00139772;0.000000000000000E+000;0.000000000000000E+000;0.524135;8
2997.07;2.99945;0.00222362;0.000000000000000E+000;0.000000000000000E+000;0.811952;8
3038.12;2.71155;0.00252117;0.000000000000000E+000;0.000000000000000E+000;0.911156;8
3079.07;1.77856;0.00252117;-0.000603692;0.269209;0.000000000000000E+000;8
3120.68;0.999282;0.00252117;-0.000958038;0.553213;0.000000000000000E+000;8
3166.68;0.999149;0.00252117;-0.00111039;0.70569;0.000000000000000E+000;8
3206.73;1.56145;0.00252117;-0.00118529;0.780649;0.000000000000000E+000;8
3247.69;2.68999;0.000688233;0.000000000000000E+000;0.000000000000000E+000;0.269154;9
3293.69;2.80974;0.00158485;0.000000000000000E+000;0.000000000000000E+000;0.594965;9
3334.52;2.99939;0.00228686;0.000000000000000E+000;0.000000000000000E+000;0.835868;9
3380.52;2.99949;0.00252303;0.000000000000000E+000;0.000000000000000E+000;0.914607;9
3416.52;1.78099;0.00252657;-0.000470093;0.212531;0.000000000000000E+000;9
3456.73;0.999149;0.00252657;-0.000853578;0.496779;0.000000000000000E+000;9
3502.73;0.999244;0.00252657;-0.00103526;0.678611;0.000000000000000E+000;9
3546.73;0.999206;0.00252657;-0.00112955;0.77297;0.000000000000000E+000;9
3583.73;2.62928;0.000564201;0.000000000000000E+000;0.000000000000000E+000;0.226659;10
3629.73;2.78581;0.00145206;0.000000000000000E+000;0.000000000000000E+000;0.552469;10
3670.46;2.99941;0.00216966;0.000000000000000E+000;0.000000000000000E+000;0.800355;10
3716.46;2.99939;0.00240711;0.000000000000000E+000;0.000000000000000E+000;0.87952;10
3752.46;1.7344;0.00242347;-0.000388068;0.184193;0.000000000000000E+000;10
3792.95;0.999053;0.00242347;-0.000778279;0.471195;0.000000000000000E+000;10
3838.95;0.999225;0.00242347;-0.000968518;0.661583;0.000000000000000E+000;10
3873.95;2.40278;0.000102104;0.000000000000000E+000;0.000000000000000E+000;0.0425014;11
3919.95;2.73877;0.000941909;0.000000000000000E+000;0.000000000000000E+000;0.368314;11
3961.3;2.99931;0.00176332;0.000000000000000E+000;0.000000000000000E+000;0.660687;11
4007.3;2.99943;0.00217244;0.000000000000000E+000;0.000000000000000E+000;0.797087;11
4043.3;2.06278;0.00225046;-0.000151332;0.0708452;0.000000000000000E+000;11
4089.3;1.11996;0.00225046;-0.000653373;0.396727;0.000000000000000E+000;11
4130.24;0.99913;0.00225046;-0.000861519;0.602876;0.000000000000000E+000;11
4169.29;1.65512;0.00225046;-0.000951999;0.69343;0.000000000000000E+000;11
4212.24;2.67323;0.000745515;0.000000000000000E+000;0.000000000000000E+000;0.297487;12
4256.75;3.00059;0.00162507;0.000000000000000E+000;0.000000000000000E+000;0.612742;12
4298.75;2.99947;0.00205867;0.000000000000000E+000;0.000000000000000E+000;0.757303;12
4334.75;1.93674;0.00216306;-5.52035e-05;0.0283391;0.000000000000000E+000;12
4380.75;1.16372;0.00216306;-0.000567123;0.354216;0.000000000000000E+000;12
4422.29;0.999187;0.00216306;-0.000788906;0.572808;0.000000000000000E+000;12
4462.34;1.63524;0.00216306;-0.000887095;0.671078;0.000000000000000E+000;12
4504.29;2.61773;0.000700647;0.000000000000000E+000;0.000000000000000E+000;0.283326;13
4546.96;3.00103;0.00154099;0.000000000000000E+000;0.000000000000000E+000;0.585491;13
4590.96;2.99947;0.00198015;0.000000000000000E+000;0.000000000000000E+000;0.731907;13
4626.96;1.85124;0.00207302;-7.91112e-05;0.042507;0.000000000000000E+000;13
4672.96;1.08048;0.00207302;-0.000567632;0.368387;0.000000000000000E+000;13
4714.66;0.999187;0.00207302;-0.000772583;0.57293;0.000000000000000E+000;13
4751.66;1.66543;0.00207302;-0.000855799;0.656212;0.000000000000000E+000;13
4795.66;2.64887;0.000770678;0.000000000000000E+000;0.000000000000000E+000;0.311655;14
4837.64;2.99933;0.00158804;0.000000000000000E+000;0.000000000000000E+000;0.601209;14
4883.64;2.99941;0.0019318;0.000000000000000E+000;0.000000000000000E+000;0.715819;14
4918.65;1.71586;0.00198454;-0.000176493;0.099181;0.000000000000000E+000;14
4959.9;0.999168;0.00198454;-0.000579436;0.391444;0.000000000000000E+000;14
5005.9;0.999225;0.00198454;-0.00077984;0.592007;0.000000000000000E+000;14
5041.9;2.36183;0.000100378;0.000000000000000E+000;0.000000000000000E+000;0.0425016;15
5087.9;2.72048;0.000916796;0.000000000000000E+000;0.000000000000000E+000;0.368318;15
5129.76;2.99947;0.0016628;0.000000000000000E+000;0.000000000000000E+000;0.628162;15
5175.76;2.99941;0.00192197;0.000000000000000E+000;0.000000000000000E+000;0.714568;15
5211.77;1.47312;0.00193789;-0.000302945;0.184191;0.000000000000000E+000;15
5253.32;0.999225;0.00193789;-0.000633643;0.464441;0.000000000000000E+000;15
5299.32;0.999168;0.00193789;-0.000782833;0.613754;0.000000000000000E+000;15
5334.32;2.42647;0.000337958;0.000000000000000E+000;0.000000000000000E+000;0.141662;16
5380.32;2.79398;0.00118931;0.000000000000000E+000;0.000000000000000E+000;0.467475;16
5421.77;2.99945;0.00174676;0.000000000000000E+000;0.000000000000000E+000;0.655284;16
5460.82;2.57115;0.00189696;0.000000000000000E+000;0.000000000000000E+000;0.705359;16
5502.77;1.2977;0.00189696;-0.00043325;0.283373;0.000000000000000E+000;16
5543.75;0.999187;0.00189696;-0.000680274;0.519066;0.000000000000000E+000;16
5585.8;1.14753;0.00189696;-0.000788217;0.627096;0.000000000000000E+000;16
5624.75;2.49654;0.000582307;0.000000000000000E+000;0.000000000000000E+000;0.240827;17
5665.78;2.99931;0.00137114;0.000000000000000E+000;0.000000000000000E+000;0.529406;17
5711.78;2.99949;0.00178635;0.000000000000000E+000;0.000000000000000E+000;0.667835;17
5747.78;1.62562;0.00186023;-0.000117589;0.0708438;0.000000000000000E+000;17
5788.21;0.99913;0.00186023;-0.000499582;0.357227;0.000000000000000E+000;17
5834.21;0.999244;0.00186023;-0.000698355;0.556161;0.000000000000000E+000;17
5869.21;2.35599;0.000100095;0.000000000000000E+000;0.000000000000000E+000;0.0425012;18
5915.21;2.72976;0.000913607;0.000000000000000E+000;0.000000000000000E+000;0.368319;18
5955.26;2.9993;0.00157176;0.000000000000000E+000;0.000000000000000E+000;0.59494;18
6000.26;2.99939;0.00180103;0.000000000000000E+000;0.000000000000000E+000;0.671377;18
6037.26;1.30755;0.00180103;-0.000338267;0.226697;0.000000000000000E+000;18
6078.98;0.999206;0.00180103;-0.000614516;0.480962;0.000000000000000E+000;18
6123.98;0.999187;0.00180103;-0.000731506;0.598046;0.000000000000000E+000;18
6160.98;2.48554;0.000545136;0.000000000000000E+000;0.000000000000000E+000;0.226661;19
6201.19;2.99935;0.00131199;0.000000000000000E+000;0.000000000000000E+000;0.507145;19
6247.19;2.99949;0.00170716;0.000000000000000E+000;0.000000000000000E+000;0.638896;19
6283.19;1.53558;0.00177194;-0.000134752;0.0850124;0.000000000000000E+000;19
6324.77;0.999301;0.00177194;-0.000500225;0.377659;0.000000000000000E+000;19
6370.77;0.999187;0.00177194;-0.00067114;0.548715;0.000000000000000E+000;19
6405.77;2.37116;0.000200028;0.000000000000000E+000;0.000000000000000E+000;0.0850002;20
6451.77;2.79952;0.00103098;0.000000000000000E+000;0.000000000000000E+000;0.410817;20
6493.7;2.9996;0.00157519;0.000000000000000E+000;0.000000000000000E+000;0.593674;20
6532.75;2.47359;0.00171655;0.000000000000000E+000;0.000000000000000E+000;0.640803;20
6575.7;1.11347;0.00171655;-0.000408491;0.297543;0.000000000000000E+000;20
6617.29;0.99913;0.00171655;-0.000608165;0.4965;0.000000000000000E+000;20
6654.29;1.60214;0.00171655;-0.000679198;0.567592;0.000000000000000E+000;20
6698.29;2.61218;0.000762654;0.000000000000000E+000;0.000000000000000E+000;0.311655;21
6739.39;2.99937;0.00143781;0.000000000000000E+000;0.000000000000000E+000;0.544847;21
6785.39;2.99939;0.00166804;0.000000000000000E+000;0.000000000000000E+000;0.621605;21
6820.39;1.225;0.00166804;-0.000297509;0.212526;0.000000000000000E+000;21
6861.28;0.999225;0.00166804;-0.000546093;0.448862;0.000000000000000E+000;21
6904.33;1.12877;0.00166804;-0.000650249;0.553104;0.000000000000000E+000;21
6943.28;2.50849;0.000582333;0.000000000000000E+000;0.000000000000000E+000;0.240826;22
6984.37;2.99933;0.00132031;0.000000000000000E+000;0.000000000000000E+000;0.503551;22
7030.37;2.99964;0.00160741;0.000000000000000E+000;0.000000000000000E+000;0.599269;22
7065.37;1.30318;0.00163162;-0.00022247;0.155854;0.000000000000000E+000;22
7106.01;0.999225;0.00163162;-0.000497791;0.409881;0.000000000000000E+000;22
7152.01;0.999072;0.00163162;-0.000620462;0.532652;0.000000000000000E+000;22
7188.01;2.47708;0.000475309;0.000000000000000E+000;0.000000000000000E+000;0.198331;23
7228.68;2.99933;0.00122263;0.000000000000000E+000;0.000000000000000E+000;0.469872;23
7274.68;2.99933;0.0015398;0.000000000000000E+000;0.000000000000000E+000;0.575617;23
7310.68;1.33846;0.00157935;-0.00018183;0.127517;0.000000000000000E+000;23
7351.6;0.999168;0.00157935;-0.000468995;0.389182;0.000000000000000E+000;23
7397.6;0.99913;0.00157935;-0.00059516;0.51545;0.000000000000000E+000;23
7433.6;2.45822;0.0004055;0.000000000000000E+000;0.000000000000000E+000;0.169998;24
7474.71;2.99951;0.0011653;0.000000000000000E+000;0.000000000000000E+000;0.449048;24
7520.71;2.99949;0.00150034;0.000000000000000E+000;0.000000000000000E+000;0.560751;24
7555.71;1.33718;0.0015436;-0.000159979;0.11335;0.000000000000000E+000;24
7595.79;0.999168;0.0015436;-0.000439903;0.37003;0.000000000000000E+000;24
7641.79;0.999263;0.0015436;-0.000566376;0.496606;0.000000000000000E+000;24
7676.79;2.33296;3.3054e-05;0.000000000000000E+000;0.000000000000000E+000;0.014169;25
7722.79;2.73165;0.000837909;0.000000000000000E+000;0.000000000000000E+000;0.339986;25
7763.76;2.99949;0.00141506;0.000000000000000E+000;0.000000000000000E+000;0.535;25
7804.81;2.53411;0.00157766;0.000000000000000E+000;0.000000000000000E+000;0.58921;25
7842.42;0.999473;0.00157766;-0.000308424;0.245541;0.000000000000000E+000;25
7886.42;0.999053;0.00157766;-0.000501603;0.438879;0.000000000000000E+000;25
7932.42;0.99911;0.00157766;-0.000582985;0.520328;0.000000000000000E+000;25
7968.42;2.45205;0.000436986;0.000000000000000E+000;0.000000000000000E+000;0.18416;26
8009.68;2.99951;0.00118975;0.000000000000000E+000;0.000000000000000E+000;0.459241;26
8055.68;2.99954;0.00150145;0.000000000000000E+000;0.000000000000000E+000;0.563163;26
8091.68;1.25108;0.00154002;-0.000170901;0.127518;0.000000000000000E+000;26
8132.21;0.999244;0.00154002;-0.000424164;0.369397;0.000000000000000E+000;26
8178.21;0.99913;0.00154002;-0.000534312;0.479634;0.000000000000000E+000;26
8214.22;2.33447;0.00013223;0.000000000000000E+000;0.000000000000000E+000;0.0566681;27
8259.06;3.00036;0.000942297;0.000000000000000E+000;0.000000000000000E+000;0.374294;27
8301.06;2.99941;0.00138928;0.000000000000000E+000;0.000000000000000E+000;0.523319;27
8336.06;1.42346;0.00148693;-2.01739e-05;0.0141707;0.000000000000000E+000;27
8377.59;0.999206;0.00148693;-0.000350219;0.299087;0.000000000000000E+000;27
8423.59;0.999168;0.00148693;-0.000494844;0.443834;0.000000000000000E+000;27
8464.64;1.43715;0.00148693;-0.000548672;0.497706;0.000000000000000E+000;27
8505.59;2.57676;0.00065347;0.000000000000000E+000;0.000000000000000E+000;0.269157;28
8546.44;2.99939;0.0012652;0.000000000000000E+000;0.000000000000000E+000;0.479484;28
8592.44;2.99939;0.00146129;0.000000000000000E+000;0.000000000000000E+000;0.54486;28
8627.44;1.10662;0.0014707;-0.000239054;0.184191;0.000000000000000E+000;28
8669.27;0.999091;0.0014707;-0.000446811;0.390515;0.000000000000000E+000;28
8715.27;0.999225;0.0014707;-0.000530322;0.474094;0.000000000000000E+000;28
8750.27;2.35643;0.000230956;0.000000000000000E+000;0.000000000000000E+000;0.0991666;29
8790.4;2.99943;0.000964062;0.000000000000000E+000;0.000000000000000E+000;0.38096;29
8836.4;2.99937;0.00135096;0.000000000000000E+000;0.000000000000000E+000;0.50995;29
8871.4;1.30568;0.00141317;-9.64356e-05;0.0708429;0.000000000000000E+000;29
8911.96;0.999187;0.00141317;-0.000370007;0.323156;0.000000000000000E+000;29
8957.96;0.99911;0.00141317;-0.000482477;0.435718;0.000000000000000E+000;29
8992.96;1.61901;4.5583e-09;0.000000000000000E+000;0.000000000000000E+000;2.81549e-06;30
9038.96;2.89729;0.000804702;0.000000000000000E+000;0.000000000000000E+000;0.325819;30
9080.8;2.9993;0.00126271;0.000000000000000E+000;0.000000000000000E+000;0.478511;30
9116.8;2.39906;0.00136855;-6.75995e-09;2.81775e-06;0.000000000000000E+000;30
9158.66;0.99913;0.00136855;-0.000327564;0.282357;0.000000000000000E+000;30
9204.66;0.999149;0.00136855;-0.000460375;0.415276;0.000000000000000E+000;30
9244.71;1.45257;0.00136855;-0.000506638;0.461577;0.000000000000000E+000;30
9286.66;2.63942;0.000686918;0.000000000000000E+000;0.000000000000000E+000;0.283322;31
9326.8;2.99945;0.00119471;0.000000000000000E+000;0.000000000000000E+000;0.454671;31
9366.85;2.60322;0.00132974;0.000000000000000E+000;0.000000000000000E+000;0.499688;31
9403.81;0.999149;0.00132974;-0.00028744;0.244011;0.000000000000000E+000;31
9449.81;0.999225;0.00132974;-0.000439962;0.396655;0.000000000000000E+000;31
9492.86;1.06479;0.00132974;-0.000495414;0.452151;0.000000000000000E+000;31
9531.81;2.53169;0.000577585;0.000000000000000E+000;0.000000000000000E+000;0.240831;32
9572.39;2.99939;0.00114009;0.000000000000000E+000;0.000000000000000E+000;0.435018;32
9613.44;2.74979;0.00129528;0.000000000000000E+000;0.000000000000000E+000;0.486757;32
9649.39;0.999206;0.00129528;-0.000265196;0.224643;0.000000000000000E+000;32
9695.39;0.999244;0.00129528;-0.000424378;0.383951;0.000000000000000E+000;32
9741.39;0.999206;0.00129528;-0.000483173;0.442794;0.000000000000000E+000;32
9776.39;2.50601;0.000507279;0.000000000000000E+000;0.000000000000000E+000;0.212498;33
9817.7;2.99949;0.00110244;0.000000000000000E+000;0.000000000000000E+000;0.420699;33
9860.75;2.95785;0.00127197;0.000000000000000E+000;0.000000000000000E+000;0.47722;33
9894.43;0.99913;0.00127197;-0.000240476;0.202946;0.000000000000000E+000;33
9940.43;0.999263;0.00127197;-0.000408683;0.371284;0.000000000000000E+000;33
9986.43;0.99913;0.00127197;-0.000468772;0.431423;0.000000000000000E+000;33
10022.4;2.52558;0.000509167;0.000000000000000E+000;0.000000000000000E+000;0.212498;34
10064.2;2.99945;0.0010884;0.000000000000000E+000;0.000000000000000E+000;0.413586;34
10106.2;2.75693;0.00124422;0.000000000000000E+000;0.000000000000000E+000;0.465537;34
10141.8;0.999187;0.00124422;-0.000254122;0.219641;0.000000000000000E+000;34
10187.8;0.999206;0.00124422;-0.000404479;0.370118;0.000000000000000E+000;34
10230.8;1.06174;0.00124422;-0.000457527;0.423209;0.000000000000000E+000;34
10269.8;2.62829;0.000584834;0.000000000000000E+000;0.000000000000000E+000;0.240831;35
10310.4;2.99941;0.00109069;0.000000000000000E+000;0.000000000000000E+000;0.412442;35
10350.4;2.62405;0.00122175;0.000000000000000E+000;0.000000000000000E+000;0.456134;35
10386.7;0.999149;0.00122175;-0.000265156;0.2332;0.000000000000000E+000;35
10432.7;0.999263;0.00122175;-0.00040054;0.36869;0.000000000000000E+000;35
10472.7;1.37875;0.00122175;-0.00044575;0.413937;0.000000000000000E+000;35
10513.7;2.8546;0.000667048;0.000000000000000E+000;0.000000000000000E+000;0.269163;36
10555;2.99952;0.00109859;0.000000000000000E+000;0.000000000000000E+000;0.41303;36
10591;2.45053;0.00119866;-6.90376e-09;2.81725e-06;0.000000000000000E+000;36
10632.3;0.999282;0.00119866;-0.000292572;0.263353;0.000000000000000E+000;36
10678.3;0.999282;0.00119866;-0.000402267;0.373136;0.000000000000000E+000;36
10714.3;1.57339;4.43009e-09;0.000000000000000E+000;0.000000000000000E+000;2.81563e-06;37
10754.7;2.99945;0.00071923;0.000000000000000E+000;0.000000000000000E+000;0.28513;37
10800.7;2.99922;0.00111472;0.000000000000000E+000;0.000000000000000E+000;0.416986;37
10835.7;1.22951;0.00117909;-7.24055e-05;0.0566725;0.000000000000000E+000;37
10875.9;0.999149;0.00117909;-0.000312194;0.285335;0.000000000000000E+000;37
10921.9;0.999244;0.00117909;-0.000402784;0.375999;0.000000000000000E+000;37
10956.9;2.34612;0.000132537;0.000000000000000E+000;0.000000000000000E+000;0.0566689;38
10998.2;2.99956;0.000854682;0.000000000000000E+000;0.000000000000000E+000;0.328376;38
11044.2;2.99945;0.00112855;0.000000000000000E+000;0.000000000000000E+000;0.419682;38
11080.2;1.07859;0.00116222;-0.000152137;0.127512;0.000000000000000E+000;38
11121.5;0.999244;0.00116222;-0.000337376;0.312898;0.000000000000000E+000;38
11167.5;0.999225;0.00116222;-0.000407663;0.383241;0.000000000000000E+000;38
11203.5;2.4468;0.000336413;0.000000000000000E+000;0.000000000000000E+000;0.141666;39
11244.2;2.99941;0.000956587;0.000000000000000E+000;0.000000000000000E+000;0.361345;39
11290.2;2.99949;0.00114517;0.000000000000000E+000;0.000000000000000E+000;0.424218;39
11320.5;0.999225;0.0011475;-0.000193352;0.170522;0.000000000000000E+000;39
11366.5;0.999282;0.0011475;-0.000354125;0.331426;0.000000000000000E+000;39
11409.5;1.06391;0.0011475;-0.000408619;0.385963;0.000000000000000E+000;39
11448.5;2.86837;0.000600542;0.000000000000000E+000;0.000000000000000E+000;0.240829;40
11490;2.99943;0.00103073;0.000000000000000E+000;0.000000000000000E+000;0.384249;40
11526;2.46456;0.0011276;-6.94381e-09;2.81746e-06;0.000000000000000E+000;40
11567.5;0.999206;0.0011276;-0.000273419;0.252824;0.000000000000000E+000;40
11613.5;0.999206;0.0011276;-0.000373693;0.353179;0.000000000000000E+000;40
11648.5;2.34596;6.64238e-05;0.000000000000000E+000;0.000000000000000E+000;0.028336;41
11689.4;2.99937;0.000788349;0.000000000000000E+000;0.000000000000000E+000;0.302642;41
11735.4;2.99941;0.00107666;0.000000000000000E+000;0.000000000000000E+000;0.398764;41
11771.4;1.06272;0.00111512;-0.000132315;0.113343;0.000000000000000E+000;41
11812;0.999225;0.00111512;-0.000313943;0.295116;0.000000000000000E+000;41
11858;0.999187;0.00111512;-0.000385153;0.366383;0.000000000000000E+000;41
11893;2.43791;0.000302889;0.000000000000000E+000;0.000000000000000E+000;0.127503;42
11933.5;2.99951;0.000918594;0.000000000000000E+000;0.000000000000000E+000;0.345529;42
11979.5;2.99943;0.00110332;0.000000000000000E+000;0.000000000000000E+000;0.407115;42
12011.3;0.99911;0.00110558;-0.000192642;0.175935;0.000000000000000E+000;42
12057.3;0.999187;0.00110558;-0.000338367;0.321779;0.000000000000000E+000;42
12099.4;1.06351;0.00110558;-0.000389574;0.373027;0.000000000000000E+000;42
12138.1;3.0009;0.000603536;0.000000000000000E+000;0.000000000000000E+000;0.239348;43
12180.1;2.99951;0.00100687;0.000000000000000E+000;0.000000000000000E+000;0.373817;43
12216.1;1.3023;0.00109291;-1.84574e-05;0.0141703;0.000000000000000E+000;43
12257;0.999225;0.00109291;-0.000265141;0.249722;0.000000000000000E+000;43
12303;0.99932;0.00109291;-0.000358225;0.34288;0.000000000000000E+000;43
12338;2.34577;9.969e-05;0.000000000000000E+000;0.000000000000000E+000;0.0425026;44
12379.2;2.99939;0.000805713;0.000000000000000E+000;0.000000000000000E+000;0.306015;44
12425.2;2.99941;0.00105369;0.000000000000000E+000;0.000000000000000E+000;0.388692;44
12456.3;0.999206;0.00108231;-0.000114061;0.0995833;0.000000000000000E+000;44
12500.3;0.999149;0.00108231;-0.000302904;0.28858;0.000000000000000E+000;44
12546.3;0.999034;0.00108231;-0.00037081;0.35654;0.000000000000000E+000;44
12582.3;2.55032;0.00037556;0.000000000000000E+000;0.000000000000000E+000;0.155832;45
12623;2.99935;0.000925693;0.000000000000000E+000;0.000000000000000E+000;0.345317;45
12665;2.77671;0.00106999;0.000000000000000E+000;0.000000000000000E+000;0.393425;45
12700;0.999072;0.00106999;-0.000210405;0.197915;0.000000000000000E+000;45
12746;0.999206;0.00106999;-0.000331995;0.319602;0.000000000000000E+000;45
12785.1;1.39984;0.00106999;-0.00037365;0.36129;0.000000000000000E+000;45
12821.2;2.99947;0.000616371;0.000000000000000E+000;0.000000000000000E+000;0.241659;46
12867.2;2.99933;0.000998557;0.000000000000000E+000;0.000000000000000E+000;0.36908;46
12903.2;1.11391;0.00106041;-6.64976e-05;0.0566724;0.000000000000000E+000;46
12943.5;0.999225;0.00106041;-0.000268798;0.257496;0.000000000000000E+000;46
12989.5;0.999168;0.00106041;-0.000350014;0.338776;0.000000000000000E+000;46
13029.5;1.30587;0.00106041;-0.000384484;0.373274;0.000000000000000E+000;46
13066.6;3.00201;0.000607952;0.000000000000000E+000;0.000000000000000E+000;0.241477;47
13110.6;2.99951;0.00101485;0.000000000000000E+000;0.000000000000000E+000;0.377136;47
13146.6;1.15089;0.00109083;-3.42586e-05;0.0283371;0.000000000000000E+000;47
13188.1;0.99913;0.00109083;-0.000256578;0.24679;0.000000000000000E+000;47
13234.1;0.999225;0.00109083;-0.000342155;0.332436;0.000000000000000E+000;47
13275.1;1.24906;0.00109083;-0.000379113;0.369423;0.000000000000000E+000;47
13312.7;3.00229;0.000601046;0.000000000000000E+000;0.000000000000000E+000;0.238466;48
13356.7;2.99943;0.00100601;0.000000000000000E+000;0.000000000000000E+000;0.373481;48
13392.7;1.13779;0.00108147;-3.39477e-05;0.0283372;0.000000000000000E+000;48
13433.5;0.999225;0.00108147;-0.000250663;0.241807;0.000000000000000E+000;48
13479.5;0.999225;0.00108147;-0.000337281;0.328496;0.000000000000000E+000;48
13520.6;1.25045;0.00108147;-0.000374472;0.365718;0.000000000000000E+000;48
13557.6;3.00229;0.000590815;0.000000000000000E+000;0.000000000000000E+000;0.234447;49
13601.6;2.99945;0.000995995;0.000000000000000E+000;0.000000000000000E+000;0.369533;49
13637.6;1.12594;0.00107124;-3.36494e-05;0.0283375;0.000000000000000E+000;49
13677.9;0.999034;0.00107124;-0.000245161;0.237183;0.000000000000000E+000;49
13723.9;0.999206;0.00107124;-0.00033264;0.324731;0.000000000000000E+000;49
13764.9;1.25173;0.00107124;-0.000370001;0.362122;0.000000000000000E+000;49
13801.5;3.00227;0.000583606;0.000000000000000E+000;0.000000000000000E+000;0.231416;50
13845.5;2.99939;0.000987016;0.000000000000000E+000;0.000000000000000E+000;0.365911;50
13881.5;1.11221;0.00106179;-3.33393e-05;0.0283375;0.000000000000000E+000;50
13923.2;0.999378;0.00106179;-0.000245432;0.238616;0.000000000000000E+000;50
13969.2;0.999206;0.00106179;-0.000330207;0.323457;0.000000000000000E+000;50
14010.2;1.30563;0.00106179;-0.000366102;0.359381;0.000000000000000E+000;50
14045.4;2.99941;0.000575956;0.000000000000000E+000;0.000000000000000E+000;0.228373;51
14091.4;2.99951;0.000987164;0.000000000000000E+000;0.000000000000000E+000;0.36547;51
14127.4;1.06902;0.00105434;-4.8165e-05;0.0425048;0.000000000000000E+000;51
14168.5;0.999168;0.00105434;-0.000245844;0.239732;0.000000000000000E+000;51
14214.5;0.999225;0.00105434;-0.000328221;0.322176;0.000000000000000E+000;51
14254.6;1.3359;0.00105434;-0.000361975;0.355958;0.000000000000000E+000;51
14292.3;2.99943;0.000644823;0.000000000000000E+000;0.000000000000000E+000;0.250657;52
14338.3;2.99935;0.000992233;0.000000000000000E+000;0.000000000000000E+000;0.366484;52
14372.9;0.998958;0.00104565;-6.58777e-05;0.0603599;0.000000000000000E+000;52
14414.9;0.99911;0.00104565;-0.000251398;0.246026;0.000000000000000E+000;52
14460.9;0.999187;0.00104565;-0.000328462;0.323154;0.000000000000000E+000;52
14496.9;2.51574;0.000306996;0.000000000000000E+000;0.000000000000000E+000;0.1275;53
14537.8;2.99943;0.000856596;0.000000000000000E+000;0.000000000000000E+000;0.317063;53
14579.9;2.78641;0.000995191;0.000000000000000E+000;0.000000000000000E+000;0.363271;53
14615.6;0.999187;0.000995191;-0.00018746;0.182994;0.000000000000000E+000;53
14661.6;0.999225;0.000995191;-0.000300971;0.296596;0.000000000000000E+000;53
14707.6;0.999225;0.000995191;-0.000349831;0.345495;0.000000000000000E+000;53
14743.6;2.72367;0.000452286;0.000000000000000E+000;0.000000000000000E+000;0.184165;54
14784.6;2.99939;0.000920548;0.000000000000000E+000;0.000000000000000E+000;0.341434;54
14823.6;2.62945;0.00102712;0.000000000000000E+000;0.000000000000000E+000;0.376964;54
14861.7;0.999206;0.00102712;-0.000203758;0.199849;0.000000000000000E+000;54
14907.7;0.999225;0.00102712;-0.000305078;0.301251;0.000000000000000E+000;54
14951.7;0.999282;0.00102712;-0.000348949;0.345157;0.000000000000000E+000;54
14987.1;3.00103;0.000544425;0.000000000000000E+000;0.000000000000000E+000;0.215282;55
15029.1;2.99939;0.000936454;0.000000000000000E+000;0.000000000000000E+000;0.345984;55
15065.1;1.19415;0.00101684;-1.69248e-05;0.01417;0.000000000000000E+000;55
15105.2;0.999168;0.00101684;-0.000216633;0.213236;0.000000000000000E+000;55
15151.2;0.999187;0.00101684;-0.000308216;0.304892;0.000000000000000E+000;55
15192.3;1.31046;0.00101684;-0.0003456;0.342306;0.000000000000000E+000;55
15227.3;2.99949;0.000579885;0.000000000000000E+000;0.000000000000000E+000;0.226606;56
15273.3;2.99947;0.000951271;0.000000000000000E+000;0.000000000000000E+000;0.350426;56
15306.6;0.999034;0.00100985;-4.02503e-05;0.0372299;0.000000000000000E+000;56
15350.6;0.999301;0.00100985;-0.00023339;0.230522;0.000000000000000E+000;56
15396.6;0.999206;0.00100985;-0.000313337;0.310533;0.000000000000000E+000;56
15433.6;1.36578;0.00100985;-0.000342398;0.339618;0.000000000000000E+000;56
15473.3;2.99952;0.000695728;0.000000000000000E+000;0.000000000000000E+000;0.264737;57
15519.3;2.99949;0.000968099;0.000000000000000E+000;0.000000000000000E+000;0.355546;57
15549.8;0.999187;0.00100299;-7.49557e-05;0.072277;0.000000000000000E+000;57
15595.8;0.999244;0.00100299;-0.00024777;0.245233;0.000000000000000E+000;57
15641.8;0.999282;0.00100299;-0.000317878;0.315397;0.000000000000000E+000;57
15676.8;2.362;0.000100344;0.000000000000000E+000;0.000000000000000E+000;0.042502;58
15718.1;2.99939;0.000772966;0.000000000000000E+000;0.000000000000000E+000;0.289972;58
15764.1;2.99947;0.000979227;0.000000000000000E+000;0.000000000000000E+000;0.358739;58
15796;0.999091;0.000994298;-0.000123579;0.121308;0.000000000000000E+000;58
15842;0.999168;0.000994298;-0.000264016;0.261855;0.000000000000000E+000;58
15888;0.999244;0.000994298;-0.000323651;0.321536;0.000000000000000E+000;58
15924;2.48369;0.000306767;0.000000000000000E+000;0.000000000000000E+000;0.127499;59
15964.9;2.99949;0.000849469;0.000000000000000E+000;0.000000000000000E+000;0.314788;59
16006.9;2.96498;0.000986448;0.000000000000000E+000;0.000000000000000E+000;0.360457;59
16041.6;0.999359;0.000986448;-0.000162121;0.159986;0.000000000000000E+000;59
16087.6;0.999168;0.000986448;-0.00027802;0.275979;0.000000000000000E+000;59
16133.6;0.999168;0.000986448;-0.000329148;0.327149;0.000000000000000E+000;59
16168.6;2.84794;0.000459353;0.000000000000000E+000;0.000000000000000E+000;0.184163;60
16209.1;2.99951;0.000883953;0.000000000000000E+000;0.000000000000000E+000;0.325875;60
16247.1;2.60979;0.000978811;0.000000000000000E+000;0.000000000000000E+000;0.357501;60
16286.5;0.999149;0.000978811;-0.000192044;0.190116;0.000000000000000E+000;60
16332.5;0.999206;0.000978811;-0.000288859;0.28701;0.000000000000000E+000;60
16373.6;1.2642;0.000978811;-0.000328782;0.326965;0.000000000000000E+000;60
16407.6;2.99943;0.00054567;0.000000000000000E+000;0.000000000000000E+000;0.212614;61
16453.6;2.9993;0.000914335;0.000000000000000E+000;0.000000000000000E+000;0.335529;61
16484.8;0.999187;0.000971817;-2.41649e-05;0.022223;0.000000000000000E+000;61
16530.8;0.999149;0.000971817;-0.000216352;0.214563;0.000000000000000E+000;61
16576.8;0.99911;0.000971817;-0.000297921;0.296197;0.000000000000000E+000;61
16611.8;2.36656;3.35303e-05;0.000000000000000E+000;0.000000000000000E+000;0.0141694;62
16653.3;2.99947;0.00072431;0.000000000000000E+000;0.000000000000000E+000;0.271354;62
16699.3;2.99947;0.000941536;0.000000000000000E+000;0.000000000000000E+000;0.343777;62
16730.3;0.99913;0.000961028;-0.000102211;0.100472;0.000000000000000E+000;62
16776.3;0.999301;0.000961028;-0.000244829;0.243202;0.000000000000000E+000;62
16822.3;0.99911;0.000961028;-0.000309184;0.30761;0.000000000000000E+000;62
16857.3;2.44201;0.00023766;0.000000000000000E+000;0.000000000000000E+000;0.0991688;63
16898.8;2.99939;0.000813824;0.000000000000000E+000;0.000000000000000E+000;0.301085;63
16941.9;2.96442;0.000958481;0.000000000000000E+000;0.000000000000000E+000;0.349314;63
16975.7;0.99932;0.000958481;-0.000148621;0.147051;0.000000000000000E+000;63
17021.7;0.99913;0.000958481;-0.000263445;0.261963;0.000000000000000E+000;63
17067.7;0.999149;0.000958481;-0.00031652;0.315081;0.000000000000000E+000;63
17102.7;2.93167;0.000464321;0.000000000000000E+000;0.000000000000000E+000;0.184165;64
17143.8;2.99933;0.000866124;0.000000000000000E+000;0.000000000000000E+000;0.318123;64
17179.8;2.49992;0.00095188;-7.04325e-09;2.81739e-06;0.000000000000000E+000;64
17220.5;0.999206;0.00095188;-0.000184196;0.182769;0.000000000000000E+000;64
17266.5;0.999206;0.00095188;-0.00027813;0.276777;0.000000000000000E+000;64
17306.6;1.33476;0.00095188;-0.000315874;0.314551;0.000000000000000E+000;64
17343.2;2.99931;0.000617459;0.000000000000000E+000;0.000000000000000E+000;0.234564;65
17389.2;2.99926;0.000904373;0.000000000000000E+000;0.000000000000000E+000;0.330221;65
17419.9;0.999206;0.000943819;-5.67911e-05;0.0553989;0.000000000000000E+000;65
17465.9;0.999206;0.000943819;-0.000217279;0.216016;0.000000000000000E+000;65
17511.9;0.999187;0.000943819;-0.000292006;0.290803;0.000000000000000E+000;65
17546.9;2.37533;6.72097e-05;0.000000000000000E+000;0.000000000000000E+000;0.0283357;66
17587.6;2.99935;0.0007271;0.000000000000000E+000;0.000000000000000E+000;0.271215;66
17633.6;2.99935;0.000928746;0.000000000000000E+000;0.000000000000000E+000;0.338443;66
17664.2;0.999206;0.000943643;-0.000102636;0.101401;0.000000000000000E+000;66
17710.2;0.999263;0.000943643;-0.000235211;0.234086;0.000000000000000E+000;66
17756.2;0.99913;0.000943643;-0.000298995;0.297921;0.000000000000000E+000;66
17791.2;2.45137;0.000238;0.000000000000000E+000;0.000000000000000E+000;0.0991682;67
17831.6;2.99933;0.000794078;0.000000000000000E+000;0.000000000000000E+000;0.293028;67
17874.6;2.96474;0.000937973;0.000000000000000E+000;0.000000000000000E+000;0.341003;67
17908.1;0.999187;0.000937973;-0.000138532;0.137459;0.000000000000000E+000;67
17954.1;0.99911;0.000937973;-0.000250171;0.249189;0.000000000000000E+000;67
18000.1;0.999282;0.000937973;-0.000304754;0.303814;0.000000000000000E+000;67
18036.1;2.86638;0.000425896;0.000000000000000E+000;0.000000000000000E+000;0.169999;68
18076.2;2.99943;0.000840095;0.000000000000000E+000;0.000000000000000E+000;0.308142;68
18113.2;2.60681;0.000931673;0.000000000000000E+000;0.000000000000000E+000;0.338674;68
18151.6;0.999263;0.000931673;-0.000166887;0.165984;0.000000000000000E+000;68
18197.6;0.999225;0.000931673;-0.000261997;0.261171;0.000000000000000E+000;68
18239.7;1.06567;0.000931673;-0.000306118;0.305327;0.000000000000000E+000;68
18274.4;2.99941;0.000539842;0.000000000000000E+000;0.000000000000000E+000;0.207443;69
18320.4;2.99947;0.000875092;0.000000000000000E+000;0.000000000000000E+000;0.319216;69
18350.8;0.999187;0.00092176;-4.13719e-05;0.0405162;0.000000000000000E+000;69
18396.8;0.999263;0.00092176;-0.000200011;0.199281;0.000000000000000E+000;69
18442.8;0.999168;0.00092176;-0.000276618;0.275949;0.000000000000000E+000;69
18477.8;1.46163;4.11284e-09;0.000000000000000E+000;0.000000000000000E+000;2.81387e-06;70
18519.5;2.99939;0.000691178;0.000000000000000E+000;0.000000000000000E+000;0.2578;70
18565.5;2.99939;0.000904919;0.000000000000000E+000;0.000000000000000E+000;0.32906;70
18594.7;0.999149;0.000922347;-8.72826e-05;0.0865255;0.000000000000000E+000;70
18640.7;0.999091;0.000922347;-0.000218517;0.217863;0.000000000000000E+000;70
18686.7;0.999263;0.000922347;-0.000284497;0.283896;0.000000000000000E+000;70
18721.7;2.44503;0.00020392;0.000000000000000E+000;0.000000000000000E+000;0.0850016;71
18762.9;2.99924;0.000771164;0.000000000000000E+000;0.000000000000000E+000;0.283715;71
18805.9;2.96378;0.000914259;0.000000000000000E+000;0.000000000000000E+000;0.331423;71
18839.1;0.999244;0.000914259;-0.000129665;0.129029;0.000000000000000E+000;71
18885.1;0.999149;0.000914259;-0.000237421;0.236872;0.000000000000000E+000;71
18931.1;0.999225;0.000914259;-0.000292756;0.292252;0.000000000000000E+000;71
18966.1;2.81596;0.000389066;0.000000000000000E+000;0.000000000000000E+000;0.155833;72
19007.1;2.99954;0.000819154;0.000000000000000E+000;0.000000000000000E+000;0.299504;72
19044.1;2.60672;0.000910226;0.000000000000000E+000;0.000000000000000E+000;0.329868;72
19082.4;0.999187;0.000910226;-0.000157375;0.156912;0.000000000000000E+000;72
19128.4;0.99913;0.000910226;-0.000249401;0.249014;0.000000000000000E+000;72
19173.4;0.999053;0.000910226;-0.000296581;0.296231;0.000000000000000E+000;72
19205.2;2.99947;0.000489087;0.000000000000000E+000;0.000000000000000E+000;0.189302;73
19251.2;2.99951;0.000851587;0.000000000000000E+000;0.000000000000000E+000;0.310159;73
19281.5;0.999206;0.000908424;-1.65035e-05;0.0159764;0.000000000000000E+000;73
19327.5;0.999225;0.000908424;-0.000180769;0.18037;0.000000000000000E+000;73
19373.5;0.999206;0.000908424;-0.000259928;0.259594;0.000000000000000E+000;73
19412.5;1.31057;0.000908424;-0.000294739;0.294433;0.000000000000000E+000;73
19449;2.99928;0.000606707;0.000000000000000E+000;0.000000000000000E+000;0.228219;74
19495;2.99945;0.000870074;0.000000000000000E+000;0.000000000000000E+000;0.316027;74
19524.1;0.999244;0.000902208;-5.70252e-05;0.0566553;0.000000000000000E+000;74
19570.1;0.999244;0.000902208;-0.000195482;0.195224;0.000000000000000E+000;74
19616.1;0.99913;0.000902208;-0.000265777;0.265576;0.000000000000000E+000;74
19651.1;2.38149;6.73724e-05;0.000000000000000E+000;0.000000000000000E+000;0.028336;75
19693.1;2.99926;0.000712521;0.000000000000000E+000;0.000000000000000E+000;0.262584;75
19739.1;2.99939;0.000888555;0.000000000000000E+000;0.000000000000000E+000;0.321274;75
19768.2;0.999282;0.000892756;-0.000102687;0.102446;0.000000000000000E+000;75
19814.2;0.99911;0.000892756;-0.000215564;0.215414;0.000000000000000E+000;75
19860.2;0.99911;0.000892756;-0.00027488;0.274777;0.000000000000000E+000;75
19895.2;2.53667;0.000275925;0.000000000000000E+000;0.000000000000000E+000;0.113335;76
19936.9;2.99949;0.000777348;0.000000000000000E+000;0.000000000000000E+000;0.283938;76
19977;2.6725;0.000887938;0.000000000000000E+000;0.000000000000000E+000;0.320809;76
20013.1;0.999263;0.000887938;-0.000138376;0.138221;0.000000000000000E+000;76
20059.1;0.999206;0.000887938;-0.000232099;0.232018;0.000000000000000E+000;76
20105.1;0.999168;0.000887938;-0.000282508;0.282468;0.000000000000000E+000;76
20136.5;2.99954;0.000424072;0.000000000000000E+000;0.000000000000000E+000;0.165831;77
20182.5;2.99931;0.000820103;0.000000000000000E+000;0.000000000000000E+000;0.297866;77
20214.6;0.998442;0.000883219;-1.51428e-05;0.0149703;0.000000000000000E+000;77
20258.6;0.999244;0.000883219;-0.00016695;0.166899;0.000000000000000E+000;77
20304.6;0.999187;0.000883219;-0.000245376;0.245388;0.000000000000000E+000;77
20344.6;1.28554;0.000883219;-0.000282657;0.282699;0.000000000000000E+000;77
20380.7;2.99937;0.000581976;0.000000000000000E+000;0.000000000000000E+000;0.218174;78
20426.7;2.99945;0.00084424;0.000000000000000E+000;0.000000000000000E+000;0.305612;78
20455.8;0.999149;0.000876379;-5.42272e-05;0.0542043;0.000000000000000E+000;78
20501.8;0.999263;0.000876379;-0.000185892;0.185975;0.000000000000000E+000;78
20547.8;0.999244;0.000876379;-0.000253711;0.253848;0.000000000000000E+000;78
20583.8;2.38459;3.37856e-05;0.000000000000000E+000;0.000000000000000E+000;0.0141694;79
20624.7;2.9996;0.000676713;0.000000000000000E+000;0.000000000000000E+000;0.24953;79
20670.7;2.99939;0.000862921;0.000000000000000E+000;0.000000000000000E+000;0.311612;79
20701.7;0.999263;0.000871439;-9.72682e-05;0.0973338;0.000000000000000E+000;79
20747.7;0.99932;0.000871439;-0.000205136;0.205289;0.000000000000000E+000;79
20793.7;0.999187;0.000871439;-0.000262755;0.262953;0.000000000000000E+000;79
20828.7;2.6987;0.000316761;0.000000000000000E+000;0.000000000000000E+000;0.1275;80
20870.5;2.99928;0.000763878;0.000000000000000E+000;0.000000000000000E+000;0.277203;80
20907.5;2.60778;0.000854198;0.000000000000000E+000;0.000000000000000E+000;0.307316;80
20947.5;0.99913;0.000854198;-0.000146498;0.146614;0.000000000000000E+000;80
20993.5;0.999206;0.000854198;-0.000228964;0.229147;0.000000000000000E+000;80
21035.6;1.24717;0.000854198;-0.000270971;0.271188;0.000000000000000E+000;80
21071.2;2.99935;0.000556626;0.000000000000000E+000;0.000000000000000E+000;0.207859;81
21117.2;2.99939;0.000817099;0.000000000000000E+000;0.000000000000000E+000;0.294701;81
21149.2;0.999244;0.000851124;-6.00612e-05;0.0601092;0.000000000000000E+000;81
21195.2;0.999149;0.000851124;-0.000183158;0.183306;0.000000000000000E+000;81
21241.2;0.999244;0.000851124;-0.000247507;0.247706;0.000000000000000E+000;81
21277.2;2.42823;0.000136628;0.000000000000000E+000;0.000000000000000E+000;0.0566688;82
21318.4;2.99931;0.000702176;0.000000000000000E+000;0.000000000000000E+000;0.255986;82
21360.4;2.96314;0.0008413;0.000000000000000E+000;0.000000000000000E+000;0.302369;82
21395.3;0.999187;0.0008413;-0.000117512;0.117606;0.000000000000000E+000;82
21441.3;0.999244;0.0008413;-0.00021026;0.210427;0.000000000000000E+000;82
21487.3;0.999149;0.0008413;-0.00026124;0.26145;0.000000000000000E+000;82
21519.4;3.0021;0.000381643;0.000000000000000E+000;0.000000000000000E+000;0.148787;83
21563.4;2.99945;0.000769936;0.000000000000000E+000;0.000000000000000E+000;0.278244;83
21597.3;0.9985;0.000839226;-1.39452e-05;0.0139561;0.000000000000000E+000;83
21641.3;0.999244;0.000839226;-0.000155282;0.155406;0.000000000000000E+000;83
21687.3;0.999091;0.000839226;-0.000228973;0.229157;0.000000000000000E+000;83
21726.4;1.30112;0.000839226;-0.00026364;0.263851;0.000000000000000E+000;83
21762.9;2.99935;0.00058271;0.000000000000000E+000;0.000000000000000E+000;0.215382;84
21808.9;2.99939;0.000807869;0.000000000000000E+000;0.000000000000000E+000;0.29045;84
21839.9;0.999263;0.000829911;-7.25148e-05;0.0725682;0.000000000000000E+000;84
21885.9;0.999206;0.000829911;-0.000183971;0.184115;0.000000000000000E+000;84
21931.9;0.999206;0.000829911;-0.000243336;0.24353;0.000000000000000E+000;84
21967.9;2.48356;0.00017248;0.000000000000000E+000;0.000000000000000E+000;0.0708364;85
22008.3;2.99939;0.00069917;0.000000000000000E+000;0.000000000000000E+000;0.253898;85
22050.4;2.79524;0.000827691;0.000000000000000E+000;0.000000000000000E+000;0.296747;85
22086.3;0.999168;0.000827691;-0.000119319;0.119407;0.000000000000000E+000;85
22132.3;0.999149;0.000827691;-0.00020657;0.206728;0.000000000000000E+000;85
22178.3;0.999206;0.000827691;-0.000255202;0.2554;0.000000000000000E+000;85
22207.3;2.99939;0.000365164;0.000000000000000E+000;0.000000000000000E+000;0.14183;86
22253.3;2.99937;0.000757493;0.000000000000000E+000;0.000000000000000E+000;0.272632;86
22285.3;0.999168;0.000819268;-1.38531e-05;0.013857;0.000000000000000E+000;86
22331.3;0.999168;0.000819268;-0.000154633;0.154749;0.000000000000000E+000;86
22377.3;0.999149;0.000819268;-0.00022418;0.224351;0.000000000000000E+000;86
22412.3;2.71122;0.000250086;0.000000000000000E+000;0.000000000000000E+000;0.0991692;87
22453.7;2.99945;0.00068284;0.000000000000000E+000;0.000000000000000E+000;0.24406;87
22490.7;2.6158;0.000770304;0.000000000000000E+000;0.000000000000000E+000;0.273221;87
22530.6;0.999244;0.000770304;-0.000135448;0.135544;0.000000000000000E+000;87
22576.6;0.999263;0.000770304;-0.000212008;0.212165;0.000000000000000E+000;87
22617.6;1.28147;0.000770304;-0.000250505;0.250693;0.000000000000000E+000;87
22653.4;2.99939;0.000552853;0.000000000000000E+000;0.000000000000000E+000;0.20296;88
22699.4;2.99949;0.000775141;0.000000000000000E+000;0.000000000000000E+000;0.277071;88
22730.3;0.999206;0.000796783;-6.94805e-05;0.069534;0.000000000000000E+000;88
22776.3;0.999149;0.000796783;-0.000176185;0.176325;0.000000000000000E+000;88
22822.3;0.999206;0.000796783;-0.000233434;0.23362;0.000000000000000E+000;88
22858.3;2.63381;0.000248045;0.000000000000000E+000;0.000000000000000E+000;0.099168;89
22898.9;2.99939;0.000695724;0.000000000000000E+000;0.000000000000000E+000;0.250135;89
22936.9;2.64249;0.000791603;0.000000000000000E+000;0.000000000000000E+000;0.282101;89
22975.7;0.999168;0.000791603;-0.000128525;0.128629;0.000000000000000E+000;89
23021.7;0.999359;0.000791603;-0.000205526;0.205693;0.000000000000000E+000;89
23063.8;1.0587;0.000791603;-0.000246577;0.246778;0.000000000000000E+000;89
23097.2;2.99916;0.000500257;0.000000000000000E+000;0.000000000000000E+000;0.184726;90
23143.2;2.99943;0.000756916;0.000000000000000E+000;0.000000000000000E+000;0.270297;90
23175;0.99932;0.00079003;-5.5089e-05;0.0551318;0.000000000000000E+000;90
23221;0.999225;0.00079003;-0.000166514;0.166649;0.000000000000000E+000;90
23267;0.999206;0.00079003;-0.000225518;0.225699;0.000000000000000E+000;90
23302;2.4739;0.000138923;0.000000000000000E+000;0.000000000000000E+000;0.05667;91
23342.2;2.99941;0.000658411;0.000000000000000E+000;0.000000000000000E+000;0.23703;91
23383.2;2.79778;0.000782169;0.000000000000000E+000;0.000000000000000E+000;0.27829;91
23419;0.99934;0.000782169;-0.000112344;0.112436;0.000000000000000E+000;91
23465;0.999263;0.000782169;-0.000194162;0.19432;0.000000000000000E+000;91
23500;2.45958;3.48486e-05;0.000000000000000E+000;0.000000000000000E+000;0.0141697;92
23541.2;2.99945;0.000597113;0.000000000000000E+000;0.000000000000000E+000;0.212668;92
23583.2;2.9637;0.000731252;0.000000000000000E+000;0.000000000000000E+000;0.25739;92
23605.7;3.00021;1.44265e-05;0.000000000000000E+000;0.000000000000000E+000;0.00480949;93
23647.7;2.99939;0.000204484;0.000000000000000E+000;0.000000000000000E+000;0.0681746;93
23679.5;0.999206;0.000206625;-9.49303e-05;0.0950045;0.000000000000000E+000;93
23725.5;0.999091;0.000206625;-0.000182696;0.182839;0.000000000000000E+000;93
23764.6;1.33518;0.000206625;-0.000222307;0.222482;0.000000000000000E+000;93
23802.4;2.99935;0.000553076;0.000000000000000E+000;0.000000000000000E+000;0.19761;94
23848.4;2.99951;0.000720032;0.000000000000000E+000;0.000000000000000E+000;0.253274;94
23879.2;0.999225;0.000724009;-8.96508e-05;0.0897129;0.000000000000000E+000;94
23925.2;0.999168;0.000724009;-0.000179316;0.179451;0.000000000000000E+000;94
23965.3;1.2987;0.000724009;-0.000222278;0.222447;0.000000000000000E+000;94
24001;2.99933;0.000519432;0.000000000000000E+000;0.000000000000000E+000;0.186226;95
24047;2.99939;0.000710067;0.000000000000000E+000;0.000000000000000E+000;0.249784;95
24077.8;0.999225;0.000722319;-7.79326e-05;0.0779887;0.000000000000000E+000;95
24123.8;0.999187;0.000722319;-0.000172074;0.172205;0.000000000000000E+000;95
24165.8;1.06664;0.000722319;-0.000220333;0.220503;0.000000000000000E+000;95
24199.2;2.9993;0.000477322;0.000000000000000E+000;0.000000000000000E+000;0.171807;96
24245.2;2.99926;0.000696904;0.000000000000000E+000;0.000000000000000E+000;0.245017;96
24277.1;0.999168;0.00071985;-6.56681e-05;0.065717;0.000000000000000E+000;96
24323.1;0.999282;0.00071985;-0.000164872;0.164998;0.000000000000000E+000;96
24369.1;0.999168;0.00071985;-0.0002187;0.218869;0.000000000000000E+000;96
24398.2;2.99937;0.000427417;0.000000000000000E+000;0.000000000000000E+000;0.154806;97
24444.2;2.99935;0.000682694;0.000000000000000E+000;0.000000000000000E+000;0.239915;97
24476.1;0.999168;0.000714937;-5.26025e-05;0.0526372;0.000000000000000E+000;97
24522.1;0.999168;0.000714937;-0.000157315;0.157432;0.000000000000000E+000;97
24568.1;0.999225;0.000714937;-0.000213235;0.213397;0.000000000000000E+000;97
24598.9;2.99939;0.000397699;0.000000000000000E+000;0.000000000000000E+000;0.144201;98
24644.9;2.99939;0.000674206;0.000000000000000E+000;0.000000000000000E+000;0.236389;98
24676.8;0.999206;0.000711366;-4.56018e-05;0.04563;0.000000000000000E+000;98
24722.8;0.999244;0.000711366;-0.000152839;0.152953;0.000000000000000E+000;98
24768.8;0.999149;0.000711366;-0.000209606;0.209766;0.000000000000000E+000;98
24800.5;2.99935;0.000366241;0.000000000000000E+000;0.000000000000000E+000;0.13361;99
24846.5;2.99931;0.000666645;0.000000000000000E+000;0.000000000000000E+000;0.233764;99
24878.3;0.99913;0.000709003;-3.82738e-05;0.0382961;0.000000000000000E+000;99
24924.3;0.99913;0.000709003;-0.000148382;0.148496;0.000000000000000E+000;99
24970.3;0.999206;0.000709003;-0.000206004;0.206165;0.000000000000000E+000;99
24984.3;1.33329;0.000709003;-0.000214196;0.214363;0.000000000000000E+000;99