File: battery 3/OGO2024_flow battery 4_battery_6 mM ethoxyAB + MEEPT + 200 mM TBAPF6 in MeCN_C05.txt
time/s;Ewe/V;Energy charge/W.h;Energy discharge/W.h;Q discharge/mA.h;Q charge/mA.h;cycle number;
0.000000000000000E+000;-0.0195046;0.000000000000000E+000;0.000000000000000E+000;0.000000000000000E+000;0.000000000000000E+000;0.000000000000000E+000
46.0002;2.31826;0.000579987;0.000000000000000E+000;0.000000000000000E+000;0.254996;0.000000000000000E+000
104;2.42746;0.00155475;0.000000000000000E+000;0.000000000000000E+000;0.66581;0.000000000000000E+000
156.873;2.69937;0.00227828;0.000000000000000E+000;0.000000000000000E+000;0.947805;0.000000000000000E+000
204.874;2.17013;0.00235193;-0.000374155;0.170025;0.000000000000000E+000;0.000000000000000E+000
262.874;1.38375;0.00235193;-0.00116116;0.580923;0.000000000000000E+000;0.000000000000000E+000
316.808;0.999338;0.00235193;-0.00132365;0.736454;0.000000000000000E+000;0.000000000000000E+000
363.809;2.30199;0.000290237;0.000000000000000E+000;0.000000000000000E+000;0.127499;1
421.809;2.42069;0.00125945;0.000000000000000E+000;0.000000000000000E+000;0.538315;1
474.532;2.59933;0.00185934;0.000000000000000E+000;0.000000000000000E+000;0.775849;1
521.533;2.13048;0.0018884;-0.000461893;0.212526;0.000000000000000E+000;1
575.215;0.999357;0.0018884;-0.00108232;0.589575;0.000000000000000E+000;1
633.215;0.999319;0.0018884;-0.00118988;0.697208;0.000000000000000E+000;1
681.216;2.32588;0.000520243;0.000000000000000E+000;0.000000000000000E+000;0.226659;2
737.699;2.60057;0.00147885;0.000000000000000E+000;0.000000000000000E+000;0.62672;2
786.749;2.41377;0.00177762;0.000000000000000E+000;0.000000000000000E+000;0.741653;2
839.701;1.64557;0.00177762;-0.000723759;0.354216;0.000000000000000E+000;2
892.839;0.999262;0.00177762;-0.00107752;0.637801;0.000000000000000E+000;2
943.888;1.20001;0.00177762;-0.00111961;0.679916;0.000000000000000E+000;2
998.84;2.37076;0.000886584;0.000000000000000E+000;0.000000000000000E+000;0.382486;3
1052.04;2.59952;0.00164411;0.000000000000000E+000;0.000000000000000E+000;0.6886;3
1099.04;2.15214;0.00172335;-0.000246468;0.113349;0.000000000000000E+000;3
1155.48;0.999777;0.00172335;-0.000917444;0.513204;0.000000000000000E+000;3
1209.48;0.999395;0.00172335;-0.00105665;0.652506;0.000000000000000E+000;3
1256.48;2.31074;0.000355965;0.000000000000000E+000;0.000000000000000E+000;0.155832;4
1314.48;2.46696;0.00133123;0.000000000000000E+000;0.000000000000000E+000;0.566645;4
1365.83;2.59954;0.0016931;0.000000000000000E+000;0.000000000000000E+000;0.706453;4
1414.83;1.63352;0.0016931;-0.000620363;0.311704;0.000000000000000E+000;4
1467.71;0.9993;0.0016931;-0.000988067;0.608037;0.000000000000000E+000;4
1525.71;0.9993;0.0016931;-0.00104389;0.663895;0.000000000000000E+000;4
1572.72;2.32897;0.000552881;0.000000000000000E+000;0.000000000000000E+000;0.240827;5
1626.11;2.59946;0.00145692;0.000000000000000E+000;0.000000000000000E+000;0.61581;5
1675.11;2.39949;0.00169279;0.000000000000000E+000;0.000000000000000E+000;0.706547;5
1731.11;1.41615;0.00169279;-0.000734607;0.396716;0.000000000000000E+000;5
1784.57;0.999224;0.00169279;-0.000982119;0.623091;0.000000000000000E+000;5
1838.61;1.11729;0.00169279;-0.00102096;0.661959;0.000000000000000E+000;5
1890.57;2.35751;0.000784949;0.000000000000000E+000;0.000000000000000E+000;0.339988;6
1943.39;2.59946;0.00158022;0.000000000000000E+000;0.000000000000000E+000;0.663092;6
1991.39;2.12809;0.00168174;-0.00021352;0.0991784;0.000000000000000E+000;6
2045.85;0.999682;0.00168174;-0.000828822;0.484965;0.000000000000000E+000;6
2101.85;0.999376;0.00168174;-0.000978825;0.63507;0.000000000000000E+000;6
2149.85;2.26746;9.62549e-05;0.000000000000000E+000;0.000000000000000E+000;0.0425019;7
2207.85;2.38926;0.0010544;0.000000000000000E+000;0.000000000000000E+000;0.453317;7
2260.26;2.59957;0.00164204;0.000000000000000E+000;0.000000000000000E+000;0.68669;7
2308.26;1.76098;0.00167556;-0.000428458;0.212526;0.000000000000000E+000;7
2362.01;0.999395;0.00167556;-0.000894439;0.56168;0.000000000000000E+000;7
2420.01;0.999319;0.00167556;-0.00097899;0.64629;0.000000000000000E+000;7
2468.01;2.30728;0.000355344;0.000000000000000E+000;0.000000000000000E+000;0.155831;8
2526.01;2.49522;0.00132962;0.000000000000000E+000;0.000000000000000E+000;0.566639;8
2576.82;2.59948;0.00168251;0.000000000000000E+000;0.000000000000000E+000;0.702692;8
2625.82;1.5521;0.00168251;-0.000589361;0.311701;0.000000000000000E+000;8
2678.14;0.9993;0.00168251;-0.000929809;0.59839;0.000000000000000E+000;8
2730.18;1.19537;0.00168251;-0.000982627;0.651245;0.000000000000000E+000;8
2784.14;2.36496;0.000852314;0.000000000000000E+000;0.000000000000000E+000;0.36832;9
2837.64;2.59944;0.00158925;0.000000000000000E+000;0.000000000000000E+000;0.665986;9
2885.64;1.91993;0.00166129;-0.000295478;0.141684;0.000000000000000E+000;9
2937.67;0.999281;0.00166129;-0.000832071;0.508059;0.000000000000000E+000;9
2995.67;0.999243;0.00166129;-0.000965114;0.641193;0.000000000000000E+000;9
3043.67;2.27559;0.000160567;0.000000000000000E+000;0.000000000000000E+000;0.0708348;10
3101.67;2.39552;0.00112133;0.000000000000000E+000;0.000000000000000E+000;0.481648;10
3154.79;2.59948;0.00166632;0.000000000000000E+000;0.000000000000000E+000;0.696794;10
3202.79;1.66949;0.00168941;-0.000467921;0.240862;0.000000000000000E+000;10
3256.67;0.999357;0.00168941;-0.00089563;0.576924;0.000000000000000E+000;10
3314.67;0.999338;0.00168941;-0.000972525;0.653871;0.000000000000000E+000;10
3362.67;2.31839;0.000453699;0.000000000000000E+000;0.000000000000000E+000;0.198329;11
3417.78;2.6012;0.0013854;0.000000000000000E+000;0.000000000000000E+000;0.588671;11
3467.83;2.40602;0.00169064;0.000000000000000E+000;0.000000000000000E+000;0.706097;11
3520.78;1.4267;0.00169064;-0.000637725;0.3542;0.000000000000000E+000;11
3574.39;0.999376;0.00169064;-0.000924774;0.612718;0.000000000000000E+000;11
3632.39;0.999262;0.00169064;-0.000975818;0.663798;0.000000000000000E+000;11
3679.39;2.33659;0.000684574;0.000000000000000E+000;0.000000000000000E+000;0.297495;12
3733.07;2.59944;0.00154909;0.000000000000000E+000;0.000000000000000E+000;0.651947;12
3781.07;2.12135;0.00169794;-0.0001207;0.0566742;0.000000000000000E+000;12
3839.07;1.07658;0.00169794;-0.000776517;0.467555;0.000000000000000E+000;12
3892.82;0.999262;0.00169794;-0.000945227;0.636379;0.000000000000000E+000;12
3939.82;1.29482;3.65041e-09;0.000000000000000E+000;0.000000000000000E+000;2.81924e-06;13
3997.82;2.37567;0.000952021;0.000000000000000E+000;0.000000000000000E+000;0.410814;13
4050.06;2.59938;0.00164311;0.000000000000000E+000;0.000000000000000E+000;0.68853;13
4097.06;1.86449;0.00171161;-0.000288762;0.141685;0.000000000000000E+000;13
4149.23;0.999357;0.00171161;-0.00081664;0.509218;0.000000000000000E+000;13
4207.23;0.999395;0.00171161;-0.000957551;0.650227;0.000000000000000E+000;13
4255.23;2.27486;0.000160523;0.000000000000000E+000;0.000000000000000E+000;0.0708351;14
4313.23;2.39211;0.00112072;0.000000000000000E+000;0.000000000000000E+000;0.481647;14
4366.32;2.59946;0.00169331;0.000000000000000E+000;0.000000000000000E+000;0.70835;14
4414.32;1.69587;0.00172875;-0.000412146;0.212525;0.000000000000000E+000;14
4467.05;0.9993;0.00172875;-0.000870796;0.56312;0.000000000000000E+000;14
4525.05;0.999338;0.00172875;-0.000971423;0.663818;0.000000000000000E+000;14
4572.06;2.29109;0.000289889;0.000000000000000E+000;0.000000000000000E+000;0.127498;15
4630.06;2.43464;0.00125725;0.000000000000000E+000;0.000000000000000E+000;0.538306;15
4682.14;2.59963;0.00172661;0.000000000000000E+000;0.000000000000000E+000;0.721895;15
4729.14;1.61972;0.00174234;-0.000480784;0.25503;0.000000000000000E+000;15
4782.3;0.999395;0.00174234;-0.00089563;0.58848;0.000000000000000E+000;15
4840.3;0.999338;0.00174234;-0.000980085;0.672993;0.000000000000000E+000;15
4887.3;2.30982;0.000387738;0.000000000000000E+000;0.000000000000000E+000;0.169996;16
4945.3;2.46683;0.00136124;0.000000000000000E+000;0.000000000000000E+000;0.580802;16
4997.1;2.59952;0.00175495;0.000000000000000E+000;0.000000000000000E+000;0.73326;16
5046.1;1.51536;0.00175495;-0.000567747;0.311702;0.000000000000000E+000;16
5099.69;0.999357;0.00175495;-0.000921362;0.614794;0.000000000000000E+000;16
5157.69;0.999204;0.00175495;-0.000989713;0.683195;0.000000000000000E+000;16
5204.69;2.32141;0.000519011;0.000000000000000E+000;0.000000000000000E+000;0.226663;17
5260.34;2.60068;0.00146163;0.000000000000000E+000;0.000000000000000E+000;0.620811;17
5310.39;2.4027;0.00177038;0.000000000000000E+000;0.000000000000000E+000;0.739584;17
5364.34;1.39383;0.00177038;-0.000648177;0.368377;0.000000000000000E+000;17
5416.5;0.999281;0.00177038;-0.00093941;0.632731;0.000000000000000E+000;17
5474.5;0.999262;0.00177038;-0.000999093;0.692456;0.000000000000000E+000;17
5522.5;2.33181;0.000650936;0.000000000000000E+000;0.000000000000000E+000;0.283322;18
5574.87;2.59952;0.00153945;0.000000000000000E+000;0.000000000000000E+000;0.65125;18
5622.87;2.30929;0.00178408;-6.51256e-09;2.82015e-06;0.000000000000000E+000;18
5680.87;1.30824;0.00178408;-0.000704124;0.410882;0.000000000000000E+000;18
5733.46;0.999243;0.00178408;-0.000955446;0.648554;0.000000000000000E+000;18
5787.51;1.03018;0.00178408;-0.00100627;0.699414;0.000000000000000E+000;18
5838.47;2.34571;0.000750261;0.000000000000000E+000;0.000000000000000E+000;0.325822;19
5891.54;2.59944;0.00162322;0.000000000000000E+000;0.000000000000000E+000;0.68389;19
5939.54;2.08945;0.00179793;-8.88938e-05;0.0425063;0.000000000000000E+000;19
5997.54;1.20515;0.00179793;-0.000756389;0.453389;0.000000000000000E+000;19
6050.69;0.999414;0.00179793;-0.000970078;0.663064;0.000000000000000E+000;19
6102.74;1.16152;0.00179793;-0.00101336;0.706376;0.000000000000000E+000;19
6155.69;2.35837;0.000816817;0.000000000000000E+000;0.000000000000000E+000;0.354152;20
6207.76;2.59952;0.0016582;0.000000000000000E+000;0.000000000000000E+000;0.698162;20
6255.76;2.05881;0.0018162;-0.000117557;0.0566738;0.000000000000000E+000;20
6313.76;1.16752;0.0018162;-0.000772506;0.46755;0.000000000000000E+000;20
6367.62;0.999262;0.0018162;-0.000978613;0.671367;0.000000000000000E+000;20
6418.67;1.18304;0.0018162;-0.00101971;0.712488;0.000000000000000E+000;20
6472.62;2.36196;0.000850231;0.000000000000000E+000;0.000000000000000E+000;0.36832;21
6525.68;2.59952;0.00169102;0.000000000000000E+000;0.000000000000000E+000;0.711097;21
6573.69;2.01346;0.0018332;-0.00014567;0.0708429;0.000000000000000E+000;21
6631.69;1.12656;0.0018332;-0.000788302;0.481721;0.000000000000000E+000;21
6683.98;0.999243;0.0018332;-0.000984092;0.676545;0.000000000000000E+000;21
6735.03;1.18441;0.0018332;-0.00102613;0.718608;0.000000000000000E+000;21
6788.98;2.36095;0.000850207;0.000000000000000E+000;0.000000000000000E+000;0.368324;22
6842.46;2.59944;0.00169906;0.000000000000000E+000;0.000000000000000E+000;0.714474;22
6889.46;1.99168;0.00183822;-0.000143896;0.0708407;0.000000000000000E+000;22
6947.46;1.1258;0.00183822;-0.000783411;0.481717;0.000000000000000E+000;22
6999.76;0.999357;0.00183822;-0.000980427;0.677647;0.000000000000000E+000;22
7051.8;1.16269;0.00183822;-0.00102441;0.721657;0.000000000000000E+000;22
7104.76;2.3574;0.000816679;0.000000000000000E+000;0.000000000000000E+000;0.354151;23
7157.22;2.59929;0.00168016;0.000000000000000E+000;0.000000000000000E+000;0.707855;23
7205.22;2.03418;0.00185846;-8.65456e-05;0.0425058;0.000000000000000E+000;23
7263.22;1.22891;0.00185846;-0.000750893;0.453379;0.000000000000000E+000;23
7316.09;0.999185;0.00185846;-0.000980509;0.676817;0.000000000000000E+000;23
7370.13;1.13176;0.00185846;-0.00103095;0.72729;0.000000000000000E+000;23
7422.09;2.35526;0.000783496;0.000000000000000E+000;0.000000000000000E+000;0.339991;24
7475.26;2.59959;0.00167248;0.000000000000000E+000;0.000000000000000E+000;0.70493;24
7523.26;2.02459;0.00187192;-5.74169e-05;0.0283382;0.000000000000000E+000;24
7581.26;1.26847;0.00187192;-0.000732531;0.439215;0.000000000000000E+000;24
7634.69;0.999262;0.00187192;-0.000981342;0.67786;0.000000000000000E+000;24
7689.74;1.03178;0.00187192;-0.00103613;0.732683;0.000000000000000E+000;24
7740.69;2.34898;0.000750316;0.000000000000000E+000;0.000000000000000E+000;0.325824;25
7794.58;2.59948;0.00166274;0.000000000000000E+000;0.000000000000000E+000;0.701199;25
7842.58;2.01738;0.0018877;-2.8588e-05;0.0141705;0.000000000000000E+000;25
7900.58;1.30566;0.0018877;-0.000713846;0.425049;0.000000000000000E+000;25
7954.45;0.999224;0.0018877;-0.000982076;0.678514;0.000000000000000E+000;25
8011.45;0.999224;0.0018877;-0.00104146;0.737938;0.000000000000000E+000;25
8060.45;2.34651;0.000717225;0.000000000000000E+000;0.000000000000000E+000;0.311656;26
8113.19;2.5995;0.00161879;0.000000000000000E+000;0.000000000000000E+000;0.684636;26
8162.19;2.40704;0.00190186;0.000000000000000E+000;0.000000000000000E+000;0.793531;26
8218.19;1.36116;0.00190186;-0.000676107;0.396711;0.000000000000000E+000;26
8270.75;0.999224;0.00190186;-0.00097495;0.67066;0.000000000000000E+000;26
8328.75;0.999224;0.00190186;-0.00104427;0.740034;0.000000000000000E+000;26
8376.76;2.32666;0.000584855;0.000000000000000E+000;0.000000000000000E+000;0.254995;27
8434.76;2.51385;0.0015692;0.000000000000000E+000;0.000000000000000E+000;0.66581;27
8483.54;2.42664;0.00192255;0.000000000000000E+000;0.000000000000000E+000;0.801742;27
8535.49;1.46366;0.00192255;-0.000596311;0.340038;0.000000000000000E+000;27
8588.62;0.999414;0.00192255;-0.000959924;0.654737;0.000000000000000E+000;27
8646.62;0.999262;0.00192255;-0.00104574;0.740614;0.000000000000000E+000;27
8694.62;2.31706;0.000453411;0.000000000000000E+000;0.000000000000000E+000;0.198328;28
8752.62;2.44075;0.00142933;0.000000000000000E+000;0.000000000000000E+000;0.609137;28
8804.93;2.5994;0.00192085;0.000000000000000E+000;0.000000000000000E+000;0.801125;28
8851.93;1.59343;0.00193363;-0.000486714;0.269201;0.000000000000000E+000;28
8905.21;0.999281;0.00193363;-0.000924581;0.62133;0.000000000000000E+000;28
8963.21;0.999281;0.00193363;-0.00103853;0.735357;0.000000000000000E+000;28
9011.22;2.30491;0.000322557;0.000000000000000E+000;0.000000000000000E+000;0.141664;29
9069.22;2.42292;0.0012923;0.000000000000000E+000;0.000000000000000E+000;0.552473;29
9121.93;2.59942;0.0019036;0.000000000000000E+000;0.000000000000000E+000;0.794178;29
9169.93;1.67646;0.00194811;-0.000393503;0.212526;0.000000000000000E+000;29
9223.64;0.999395;0.00194811;-0.000889747;0.586562;0.000000000000000E+000;29
9281.64;0.999414;0.00194811;-0.0010352;0.732116;0.000000000000000E+000;29
9328.65;2.27254;0.000160273;0.000000000000000E+000;0.000000000000000E+000;0.0708336;30
9386.65;2.39589;0.0011215;0.000000000000000E+000;0.000000000000000E+000;0.481642;30
9440.07;2.59931;0.00187476;0.000000000000000E+000;0.000000000000000E+000;0.783155;30
9488.07;1.80019;0.00196372;-0.000270765;0.141682;0.000000000000000E+000;30
9544.34;0.999414;0.00196372;-0.00084347;0.540294;0.000000000000000E+000;30
9598.34;0.999338;0.00196372;-0.00102469;0.721636;0.000000000000000E+000;30
9648.39;1.20604;0.00196372;-0.0010661;0.763076;0.000000000000000E+000;30
9703.35;2.36727;0.000885454;0.000000000000000E+000;0.000000000000000E+000;0.382482;31
9755.76;2.59948;0.00177031;0.000000000000000E+000;0.000000000000000E+000;0.743117;31
9803.76;1.96531;0.00198255;-5.57122e-05;0.0283389;0.000000000000000E+000;31
9861.76;1.30354;0.00198255;-0.00072747;0.439222;0.000000000000000E+000;31
9914.47;0.999491;0.00198255;-0.00100106;0.697687;0.000000000000000E+000;31
9972.47;0.999262;0.00198255;-0.00106834;0.765018;0.000000000000000E+000;31
10020.5;2.33472;0.00061844;0.000000000000000E+000;0.000000000000000E+000;0.269158;32
10078.5;2.52815;0.00160637;0.000000000000000E+000;0.000000000000000E+000;0.679968;32
10129.6;2.59942;0.00200121;0.000000000000000E+000;0.000000000000000E+000;0.832036;32
10178.6;1.52451;0.00200121;-0.000548612;0.311704;0.000000000000000E+000;32
10231.7;0.999243;0.00200121;-0.000954642;0.650748;0.000000000000000E+000;32
10289.7;0.999281;0.00200121;-0.00106032;0.756502;0.000000000000000E+000;32
10337.7;2.31091;0.000355329;0.000000000000000E+000;0.000000000000000E+000;0.155831;33
10395.7;2.42723;0.00132761;0.000000000000000E+000;0.000000000000000E+000;0.56664;33
10449;2.5994;0.00195651;0.000000000000000E+000;0.000000000000000E+000;0.814599;33
10497;1.66602;0.0020031;-0.000388285;0.212524;0.000000000000000E+000;33
10550.1;0.999281;0.0020031;-0.000885296;0.585254;0.000000000000000E+000;33
10608.1;0.999357;0.0020031;-0.00104287;0.742937;0.000000000000000E+000;33
10662.2;1.02938;0.0020031;-0.00108277;0.782863;0.000000000000000E+000;33
10713.1;2.34716;0.000750717;0.000000000000000E+000;0.000000000000000E+000;0.32582;34
10768.3;2.60141;0.00169667;0.000000000000000E+000;0.000000000000000E+000;0.716483;34
10818.3;2.41183;0.00203827;0.000000000000000E+000;0.000000000000000E+000;0.847893;34
10872.3;1.41573;0.00203827;-0.000627184;0.368384;0.000000000000000E+000;34
10925.7;0.999224;0.00203827;-0.000978762;0.678897;0.000000000000000E+000;34
10983.7;0.999243;0.00203827;-0.00106622;0.766421;0.000000000000000E+000;34
11030.7;2.31977;0.000453774;0.000000000000000E+000;0.000000000000000E+000;0.198327;35
11088.7;2.44335;0.00143186;0.000000000000000E+000;0.000000000000000E+000;0.609131;35
11140.9;2.59942;0.00199688;0.000000000000000E+000;0.000000000000000E+000;0.830033;35
11187.9;1.64522;0.00203248;-0.00040952;0.226693;0.000000000000000E+000;35
11241.6;0.999281;0.00203248;-0.000900087;0.600927;0.000000000000000E+000;35
11299.6;0.999166;0.00203248;-0.0010509;0.751849;0.000000000000000E+000;35
11346.6;2.27318;0.000160257;0.000000000000000E+000;0.000000000000000E+000;0.070833;36
11404.6;2.40327;0.00112321;0.000000000000000E+000;0.000000000000000E+000;0.481639;36
11457.3;2.59948;0.00192367;0.000000000000000E+000;0.000000000000000E+000;0.801563;36
11505.3;1.83225;0.00204275;-0.000214222;0.113349;0.000000000000000E+000;36
11563.3;1.09245;0.00204275;-0.000823978;0.524233;0.000000000000000E+000;36
11615.7;0.999204;0.00204275;-0.00103178;0.731395;0.000000000000000E+000;36
11669.8;1.14779;0.00204275;-0.00108676;0.786417;0.000000000000000E+000;36
11721.7;2.36379;0.000785639;0.000000000000000E+000;0.000000000000000E+000;0.33999;37
11775;2.5995;0.00170369;0.000000000000000E+000;0.000000000000000E+000;0.717181;37
11826;2.41358;0.00205734;0.000000000000000E+000;0.000000000000000E+000;0.853228;37
11881;1.40204;0.00205734;-0.000644958;0.382543;0.000000000000000E+000;37
11933.7;0.999281;0.00205734;-0.000989585;0.688837;0.000000000000000E+000;37
11991.7;0.999204;0.00205734;-0.00107971;0.779031;0.000000000000000E+000;37
12038.7;2.26114;0.000127792;0.000000000000000E+000;0.000000000000000E+000;0.0566678;38
12096.7;2.38957;0.00108712;0.000000000000000E+000;0.000000000000000E+000;0.467478;38
12149.7;2.59936;0.00193796;0.000000000000000E+000;0.000000000000000E+000;0.80893;38
12197.7;1.85069;0.00208827;-0.000160644;0.0850098;0.000000000000000E+000;38
12255.7;1.19163;0.00208827;-0.00078943;0.495889;0.000000000000000E+000;38
12308.4;0.999376;0.00208827;-0.00102545;0.7276;0.000000000000000E+000;38
12366.4;0.9993;0.00208827;-0.0010899;0.792097;0.000000000000000E+000;38
12413.4;2.31316;0.000387286;0.000000000000000E+000;0.000000000000000E+000;0.169997;39
12471.4;2.43945;0.0013621;0.000000000000000E+000;0.000000000000000E+000;0.580809;39
12524.1;2.59948;0.00203321;0.000000000000000E+000;0.000000000000000E+000;0.844983;39
12571.1;1.68673;0.00209526;-0.000333924;0.184186;0.000000000000000E+000;39
12623.6;0.999338;0.00209526;-0.000850458;0.556392;0.000000000000000E+000;39
12681.6;0.9993;0.00209526;-0.00104425;0.750316;0.000000000000000E+000;39
12739.6;0.99951;0.00209526;-0.0010946;0.800706;0.000000000000000E+000;39
12786.6;2.33819;0.000618482;0.000000000000000E+000;0.000000000000000E+000;0.269158;40
12844.6;2.49608;0.00160787;0.000000000000000E+000;0.000000000000000E+000;0.679965;40
12896.9;2.59954;0.00209111;0.000000000000000E+000;0.000000000000000E+000;0.86657;40
12944.9;1.53392;0.00209461;-0.00051342;0.297535;0.000000000000000E+000;40
12997.2;0.999262;0.00209461;-0.00093402;0.643867;0.000000000000000E+000;40
13055.2;0.999319;0.00209461;-0.00105949;0.769424;0.000000000000000E+000;40
13105.2;1.20677;0.00209461;-0.00109274;0.802697;0.000000000000000E+000;40
13161.2;2.38266;0.000920356;0.000000000000000E+000;0.000000000000000E+000;0.396648;41
13214.6;2.59944;0.00183994;0.000000000000000E+000;0.000000000000000E+000;0.769066;41
13261.6;1.88165;0.00209459;-2.66653e-05;0.0141706;0.000000000000000E+000;41
13319.6;1.32447;0.00209459;-0.000690759;0.425053;0.000000000000000E+000;41
13373.6;0.999243;0.00209459;-0.00099337;0.707142;0.000000000000000E+000;41
13431.6;0.999472;0.00209459;-0.00107312;0.786946;0.000000000000000E+000;41
13478.6;2.28945;0.000257294;0.000000000000000E+000;0.000000000000000E+000;0.113331;42
13536.6;2.42968;0.00122736;0.000000000000000E+000;0.000000000000000E+000;0.524135;42
13588.9;2.5994;0.00199269;0.000000000000000E+000;0.000000000000000E+000;0.826862;42
13636.9;1.72577;0.00209238;-0.000256884;0.141686;0.000000000000000E+000;42
13694.4;0.99972;0.00209238;-0.000830751;0.549323;0.000000000000000E+000;42
13748.4;0.999224;0.00209238;-0.00102158;0.740292;0.000000000000000E+000;42
13806.4;0.999224;0.00209238;-0.00107882;0.79757;0.000000000000000E+000;42
13853.4;2.33918;0.000553693;0.000000000000000E+000;0.000000000000000E+000;0.240823;43
13911.4;2.49132;0.00154307;0.000000000000000E+000;0.000000000000000E+000;0.651632;43
13964.1;2.59934;0.00206821;0.000000000000000E+000;0.000000000000000E+000;0.854757;43
14011.1;1.55139;0.00208167;-0.000461601;0.269195;0.000000000000000E+000;43
14063.7;0.999338;0.00208167;-0.000897135;0.623238;0.000000000000000E+000;43
14121.7;0.999453;0.00208167;-0.00103351;0.75971;0.000000000000000E+000;43
14173.7;1.18735;0.00208167;-0.0010725;0.798727;0.000000000000000E+000;43
14227.7;2.38399;0.0008555;0.000000000000000E+000;0.000000000000000E+000;0.368319;44
14281;2.59952;0.00177494;0.000000000000000E+000;0.000000000000000E+000;0.740627;44
14329;2.28701;0.00206725;-6.44162e-09;2.81662e-06;0.000000000000000E+000;44
14387;1.30977;0.00206725;-0.000656349;0.410877;0.000000000000000E+000;44
14440.1;0.999376;0.00206725;-0.000953085;0.689314;0.000000000000000E+000;44
14498.1;0.999338;0.00206725;-0.00103723;0.773516;0.000000000000000E+000;44
14546.1;2.30453;0.000290956;0.000000000000000E+000;0.000000000000000E+000;0.127498;45
14604.1;2.45562;0.00126766;0.000000000000000E+000;0.000000000000000E+000;0.538307;45
14657.3;2.59952;0.00197389;0.000000000000000E+000;0.000000000000000E+000;0.815285;45
14705.3;1.623;0.00204245;-0.000319679;0.184189;0.000000000000000E+000;45
14758.8;0.999166;0.00204245;-0.000813345;0.560306;0.000000000000000E+000;45
14816.8;0.999243;0.00204245;-0.00098517;0.732252;0.000000000000000E+000;45
14873.8;0.999243;0.00204245;-0.00103667;0.783791;0.000000000000000E+000;45
14922.8;2.36813;0.000723117;0.000000000000000E+000;0.000000000000000E+000;0.311655;46
14976.2;2.59944;0.0016488;0.000000000000000E+000;0.000000000000000E+000;0.688662;46
15034.2;2.59954;0.00205015;0.000000000000000E+000;0.000000000000000E+000;0.843059;46
15082.2;1.54305;0.00207159;-0.00040649;0.240861;0.000000000000000E+000;46
15135.6;0.999281;0.00207159;-0.000850968;0.601529;0.000000000000000E+000;46
15193.6;0.999281;0.00207159;-0.000992779;0.743439;0.000000000000000E+000;46
15245.6;1.17458;0.00207159;-0.00103568;0.786372;0.000000000000000E+000;46
15298.6;2.39316;0.000825509;0.000000000000000E+000;0.000000000000000E+000;0.354156;47
15351.9;2.59954;0.00173154;0.000000000000000E+000;0.000000000000000E+000;0.718806;47
15409.9;2.59938;0.00203882;0.000000000000000E+000;0.000000000000000E+000;0.837017;47
15457.9;1.47082;0.00204517;-0.000465672;0.283366;0.000000000000000E+000;47
15511.5;0.999357;0.00204517;-0.000860854;0.622394;0.000000000000000E+000;47
15569.5;0.999281;0.00204517;-0.00098064;0.742263;0.000000000000000E+000;47
15617.5;2.27059;3.21697e-05;0.000000000000000E+000;0.000000000000000E+000;0.0141692;48
15675.5;2.41566;0.000997559;0.000000000000000E+000;0.000000000000000E+000;0.42498;48
15728.3;2.59942;0.00181039;0.000000000000000E+000;0.000000000000000E+000;0.747102;48
15781.3;2.39787;0.00201187;0.000000000000000E+000;0.000000000000000E+000;0.824613;48
15834.3;1.31769;0.00201187;-0.000556672;0.354206;0.000000000000000E+000;48
15887.7;0.999262;0.00201187;-0.000872019;0.646641;0.000000000000000E+000;48
15945.7;0.9993;0.00201187;-0.00096702;0.741711;0.000000000000000E+000;48
15993.7;2.3078;0.00022705;0.000000000000000E+000;0.000000000000000E+000;0.0991662;49
16051.7;2.46943;0.00120761;0.000000000000000E+000;0.000000000000000E+000;0.50998;49
16104.4;2.5995;0.00186459;0.000000000000000E+000;0.000000000000000E+000;0.765876;49
16152.4;1.74099;0.00197906;-7.44653e-05;0.0425066;0.000000000000000E+000;49
16210.4;1.07958;0.00197906;-0.000665613;0.453388;0.000000000000000E+000;49
16263.6;0.999319;0.00197906;-0.000882896;0.670248;0.000000000000000E+000;49
16321.6;0.999434;0.00197906;-0.000955289;0.742691;0.000000000000000E+000;49
16369.6;2.3598;0.000492918;0.000000000000000E+000;0.000000000000000E+000;0.212495;50
16424.2;2.59996;0.00143741;0.000000000000000E+000;0.000000000000000E+000;0.599598;50
16480.2;2.5994;0.00190632;0.000000000000000E+000;0.000000000000000E+000;0.779985;50
16528.2;1.54793;0.00195242;-0.000281593;0.170018;0.000000000000000E+000;50
16581.3;0.999319;0.00195242;-0.000733588;0.53315;0.000000000000000E+000;50
16639.3;0.999262;0.00195242;-0.00089125;0.690926;0.000000000000000E+000;50
16692.3;1.15121;0.00195242;-0.000941767;0.741479;0.000000000000000E+000;50
16744.3;2.41355;0.000798607;0.000000000000000E+000;0.000000000000000E+000;0.339984;51
16796.8;2.59944;0.00166055;0.000000000000000E+000;0.000000000000000E+000;0.683254;51
16854.8;2.59955;0.001923;0.000000000000000E+000;0.000000000000000E+000;0.784219;51
16902.8;1.536;0.0019549;-0.000278594;0.170021;0.000000000000000E+000;51
16956.4;0.999319;0.0019549;-0.000723072;0.532939;0.000000000000000E+000;51
17014.4;0.999319;0.0019549;-0.000875871;0.685846;0.000000000000000E+000;51
17068.5;1.15117;0.0019549;-0.000927189;0.737202;0.000000000000000E+000;51
17120.4;2.4203;0.000800625;0.000000000000000E+000;0.000000000000000E+000;0.339982;52
17172.8;2.59948;0.00164722;0.000000000000000E+000;0.000000000000000E+000;0.676127;52
17230.8;2.59936;0.00189543;0.000000000000000E+000;0.000000000000000E+000;0.771614;52
17277.8;1.51009;0.00192489;-0.000275108;0.170024;0.000000000000000E+000;52
17331;0.999357;0.00192489;-0.000704094;0.525813;0.000000000000000E+000;52
17389;0.999338;0.00192489;-0.000853094;0.67492;0.000000000000000E+000;52
17440.1;1.21118;0.00192489;-0.000900753;0.722612;0.000000000000000E+000;52
17494;2.43859;0.000872102;0.000000000000000E+000;0.000000000000000E+000;0.368315;53
17547.9;2.59955;0.00167406;0.000000000000000E+000;0.000000000000000E+000;0.68395;53
17605.9;2.59946;0.00187177;0.000000000000000E+000;0.000000000000000E+000;0.76001;53
17652.9;1.39719;0.00188707;-0.000352098;0.226694;0.000000000000000E+000;53
17705.5;0.999395;0.00188707;-0.0007136;0.548595;0.000000000000000E+000;53
17763.5;0.999357;0.00188707;-0.000837679;0.672766;0.000000000000000E+000;53
17810.5;2.30293;3.26276e-05;0.000000000000000E+000;0.000000000000000E+000;0.014169;54
17868.5;2.46767;0.00101443;0.000000000000000E+000;0.000000000000000E+000;0.42498;54
17922.2;2.5994;0.00170321;0.000000000000000E+000;0.000000000000000E+000;0.692933;54
17980.2;2.59948;0.00185584;0.000000000000000E+000;0.000000000000000E+000;0.751651;54
18027.2;1.2888;0.00185865;-0.00042229;0.283362;0.000000000000000E+000;54
18079.8;0.999281;0.00185865;-0.000721123;0.566775;0.000000000000000E+000;54
18137.8;0.999262;0.00185865;-0.00082617;0.671897;0.000000000000000E+000;54
18185.8;2.34268;0.000230301;0.000000000000000E+000;0.000000000000000E+000;0.0991658;55
18243.8;2.58302;0.00123258;0.000000000000000E+000;0.000000000000000E+000;0.509973;55
18297.2;2.5995;0.00172895;0.000000000000000E+000;0.000000000000000E+000;0.700918;55
18347.2;2.37458;0.00182426;0.000000000000000E+000;0.000000000000000E+000;0.737582;55
18401.3;0.999834;0.00182426;-0.000526151;0.383434;0.000000000000000E+000;55
18455.3;0.999224;0.00182426;-0.000738079;0.595512;0.000000000000000E+000;55
18513.3;0.999128;0.00182426;-0.000817877;0.675368;0.000000000000000E+000;55
18560.3;2.33888;0.00019753;0.000000000000000E+000;0.000000000000000E+000;0.0850003;56
18618.3;2.53302;0.00119662;0.000000000000000E+000;0.000000000000000E+000;0.495812;56
18671.8;2.59961;0.00172502;0.000000000000000E+000;0.000000000000000E+000;0.699331;56
18722.8;2.38403;0.00182728;0.000000000000000E+000;0.000000000000000E+000;0.738671;56
18776.2;0.99972;0.00182728;-0.000506186;0.371288;0.000000000000000E+000;56
18830.2;0.999395;0.00182728;-0.00071952;0.584771;0.000000000000000E+000;56
18888.2;0.999224;0.00182728;-0.000800441;0.665747;0.000000000000000E+000;56
18935.2;2.39938;0.000467355;0.000000000000000E+000;0.000000000000000E+000;0.198328;57
18988.7;2.5995;0.0013891;0.000000000000000E+000;0.000000000000000E+000;0.567124;57
19046.7;2.59944;0.00172136;0.000000000000000E+000;0.000000000000000E+000;0.694941;57
19094.7;1.48682;0.00176783;-0.000175867;0.113346;0.000000000000000E+000;57
19148.3;0.9993;0.00176783;-0.000584582;0.461831;0.000000000000000E+000;57
19206.3;0.999376;0.00176783;-0.00073242;0.609771;0.000000000000000E+000;57
19264.3;0.999319;0.00176783;-0.000791824;0.669218;0.000000000000000E+000;57
19312.3;2.42597;0.000605625;0.000000000000000E+000;0.000000000000000E+000;0.254992;58
19365.5;2.59931;0.00147907;0.000000000000000E+000;0.000000000000000E+000;0.600824;58
19423.5;2.59954;0.00173735;0.000000000000000E+000;0.000000000000000E+000;0.700187;58
19470.5;1.38774;0.00176858;-0.000234587;0.155852;0.000000000000000E+000;58
19524.4;0.999243;0.00176858;-0.00059657;0.481149;0.000000000000000E+000;58
19582.4;0.999319;0.00176858;-0.000726297;0.610968;0.000000000000000E+000;58
19640.4;0.999338;0.00176858;-0.000780647;0.665356;0.000000000000000E+000;58
19688.4;2.4456;0.00071007;0.000000000000000E+000;0.000000000000000E+000;0.29749;59
19742;2.59942;0.0015229;0.000000000000000E+000;0.000000000000000E+000;0.616457;59
19800;2.59936;0.00172463;0.000000000000000E+000;0.000000000000000E+000;0.694061;59
19848;1.26066;0.0017435;-0.000304642;0.212523;0.000000000000000E+000;59
19901.6;0.9993;0.0017435;-0.000603936;0.497842;0.000000000000000E+000;59
19959.6;0.9993;0.0017435;-0.000715148;0.609133;0.000000000000000E+000;59
20010.6;1.20314;0.0017435;-0.000758325;0.652341;0.000000000000000E+000;59
20064.6;2.50778;0.000888771;0.000000000000000E+000;0.000000000000000E+000;0.36832;60
20117.9;2.5994;0.00156403;0.000000000000000E+000;0.000000000000000E+000;0.630155;60
20175.9;2.59933;0.00170982;0.000000000000000E+000;0.000000000000000E+000;0.686237;60
20222.9;1.07834;0.00171246;-0.000381119;0.283364;0.000000000000000E+000;60
20276.5;0.999243;0.00171246;-0.000615223;0.517042;0.000000000000000E+000;60
20334.5;0.999262;0.00171246;-0.000708969;0.610853;0.000000000000000E+000;60
20382.5;2.34468;9.95856e-05;0.000000000000000E+000;0.000000000000000E+000;0.0425017;61
20440.2;2.60074;0.00110121;0.000000000000000E+000;0.000000000000000E+000;0.450726;61
20494.2;2.5995;0.00159469;0.000000000000000E+000;0.000000000000000E+000;0.640564;61
20544.2;2.39466;0.001686;0.000000000000000E+000;0.000000000000000E+000;0.675693;61
20594.6;0.999338;0.001686;-0.00043526;0.345198;0.000000000000000E+000;61
20652.6;0.999338;0.001686;-0.000627394;0.537467;0.000000000000000E+000;61
20710.6;0.999338;0.001686;-0.000703431;0.613555;0.000000000000000E+000;61
20758.6;2.41276;0.000369761;0.000000000000000E+000;0.000000000000000E+000;0.155829;62
20812.3;2.59934;0.00129189;0.000000000000000E+000;0.000000000000000E+000;0.52254;62
20870.3;2.59946;0.00161085;0.000000000000000E+000;0.000000000000000E+000;0.645247;62
20917.3;1.39803;0.0016555;-0.000145955;0.0991781;0.000000000000000E+000;62
20970.8;0.999224;0.0016555;-0.000505245;0.422642;0.000000000000000E+000;62
21028.8;0.999338;0.0016555;-0.000640926;0.558419;0.000000000000000E+000;62
21086.8;0.999281;0.0016555;-0.000700655;0.61819;0.000000000000000E+000;62
21134.8;2.47935;0.00071813;0.000000000000000E+000;0.000000000000000E+000;0.297493;63
21186.8;2.5995;0.00145167;0.000000000000000E+000;0.000000000000000E+000;0.582818;63
21244.8;2.59942;0.00162266;0.000000000000000E+000;0.000000000000000E+000;0.648597;63
21291.8;1.07359;0.00163348;-0.00031607;0.240857;0.000000000000000E+000;63
21345.5;0.999376;0.00163348;-0.00055222;0.476547;0.000000000000000E+000;63
21403.5;0.999224;0.00163348;-0.000650809;0.575207;0.000000000000000E+000;63
21450.5;2.36158;6.69012e-05;0.000000000000000E+000;0.000000000000000E+000;0.0283357;64
21504.7;2.60041;0.0010127;0.000000000000000E+000;0.000000000000000E+000;0.412433;64
21560.7;2.59944;0.00152196;0.000000000000000E+000;0.000000000000000E+000;0.608344;64
21609.7;2.38388;0.00160593;0.000000000000000E+000;0.000000000000000E+000;0.640646;64
21661.5;0.999357;0.00160593;-0.00041549;0.3465;0.000000000000000E+000;64
21719.5;0.999338;0.00160593;-0.000583924;0.515055;0.000000000000000E+000;64
21777.5;0.999338;0.00160593;-0.000656456;0.587638;0.000000000000000E+000;64
21824.5;2.44764;0.000441655;0.000000000000000E+000;0.000000000000000E+000;0.184163;65
21877.1;2.5994;0.00130424;0.000000000000000E+000;0.000000000000000E+000;0.523466;65
21935.1;2.59936;0.00155263;0.000000000000000E+000;0.000000000000000E+000;0.619021;65
21982.1;1.20053;0.00158161;-0.000211004;0.155849;0.000000000000000E+000;65
22035.9;0.999319;0.00158161;-0.000490483;0.428198;0.000000000000000E+000;65
22093.9;0.999281;0.00158161;-0.000603644;0.541441;0.000000000000000E+000;65
22145;1.21616;0.00158161;-0.000650995;0.588825;0.000000000000000E+000;65
22198.9;2.57309;0.00090487;0.000000000000000E+000;0.000000000000000E+000;0.368317;66
22251.6;2.59946;0.00144947;0.000000000000000E+000;0.000000000000000E+000;0.57791;66
22303.7;2.45068;0.00155273;0.000000000000000E+000;0.000000000000000E+000;0.617634;66
22352.6;0.999262;0.00155273;-0.000366072;0.309701;0.000000000000000E+000;66
22410.6;0.999319;0.00155273;-0.000541928;0.485681;0.000000000000000E+000;66
22468.6;0.999262;0.00155273;-0.000618903;0.562711;0.000000000000000E+000;66
22515.6;2.45505;0.000409109;0.000000000000000E+000;0.000000000000000E+000;0.169994;67
22568.5;2.59952;0.00126592;0.000000000000000E+000;0.000000000000000E+000;0.506192;67
22626.5;2.5994;0.00150027;0.000000000000000E+000;0.000000000000000E+000;0.596347;67
22673.5;1.10365;0.00152549;-0.000219252;0.170014;0.000000000000000E+000;67
22725.6;0.999319;0.00152549;-0.00046443;0.413681;0.000000000000000E+000;67
22783.6;0.999338;0.00152549;-0.000573582;0.52291;0.000000000000000E+000;67
22833.6;1.24318;0.00152549;-0.000618387;0.567746;0.000000000000000E+000;67
22885.2;2.5994;0.000901708;0.000000000000000E+000;0.000000000000000E+000;0.365066;68
22943.2;2.59954;0.00142941;0.000000000000000E+000;0.000000000000000E+000;0.568071;68
22991.2;2.18343;0.0015075;-6.12733e-09;2.80629e-06;0.000000000000000E+000;68
23043.7;0.999166;0.0015075;-0.000376263;0.330062;0.000000000000000E+000;68
23101.7;0.999262;0.0015075;-0.00052708;0.480987;0.000000000000000E+000;68
23159.7;0.999281;0.0015075;-0.000597685;0.551642;0.000000000000000E+000;68
23206.7;2.49976;0.000587183;0.000000000000000E+000;0.000000000000000E+000;0.240824;69
23260.3;2.59948;0.00131831;0.000000000000000E+000;0.000000000000000E+000;0.524277;69
23318.3;2.59946;0.00147164;0.000000000000000E+000;0.000000000000000E+000;0.58326;69
23360.1;0.999357;0.00147662;-0.000270994;0.229625;0.000000000000000E+000;69
23418.1;0.999166;0.00147662;-0.000476097;0.434871;0.000000000000000E+000;69
23476.1;0.9993;0.00147662;-0.000564547;0.523384;0.000000000000000E+000;69
23523.1;2.43012;0.000272657;0.000000000000000E+000;0.000000000000000E+000;0.113332;70
23576.9;2.59952;0.00116515;0.000000000000000E+000;0.000000000000000E+000;0.464451;70
23634.9;2.59954;0.00142139;0.000000000000000E+000;0.000000000000000E+000;0.563027;70
23681.9;1.05138;0.00144952;-0.000192515;0.155847;0.000000000000000E+000;70
23735.1;0.999376;0.00144952;-0.000426662;0.389908;0.000000000000000E+000;70
23793.1;0.9993;0.00144952;-0.000532954;0.496275;0.000000000000000E+000;70
23840.1;1.45396;4.07881e-09;0.000000000000000E+000;0.000000000000000E+000;2.80531e-06;71
23892.6;2.59938;0.000924201;0.000000000000000E+000;0.000000000000000E+000;0.371098;71
23950.6;2.59946;0.00136748;0.000000000000000E+000;0.000000000000000E+000;0.541627;71
23997.6;1.31485;0.00142724;-5.7145e-05;0.0425058;0.000000000000000E+000;71
24051.1;0.999166;0.00142724;-0.000370161;0.337401;0.000000000000000E+000;71
24109.1;0.999319;0.00142724;-0.000498815;0.466147;0.000000000000000E+000;71
24164.1;1.06185;0.00142724;-0.000560638;0.528012;0.000000000000000E+000;71
24213.9;2.60066;0.00078767;0.000000000000000E+000;0.000000000000000E+000;0.317763;72
24267.9;2.59942;0.00131205;0.000000000000000E+000;0.000000000000000E+000;0.519493;72
24319;2.41397;0.00140056;0.000000000000000E+000;0.000000000000000E+000;0.553544;72
24369.8;0.999185;0.00140056;-0.000327552;0.29855;0.000000000000000E+000;72
24427.8;0.999262;0.00140056;-0.000472002;0.443101;0.000000000000000E+000;72
24485.8;0.999319;0.00140056;-0.000542821;0.51397;0.000000000000000E+000;72
24532.8;2.53306;0.000627801;0.000000000000000E+000;0.000000000000000E+000;0.254989;73
24586.5;2.59948;0.00126328;0.000000000000000E+000;0.000000000000000E+000;0.500104;73
24640.5;2.57065;0.00138067;0.000000000000000E+000;0.000000000000000E+000;0.545262;73
24686.1;0.999224;0.00138067;-0.000282809;0.256932;0.000000000000000E+000;73
24744.1;0.999338;0.00138067;-0.000445514;0.419751;0.000000000000000E+000;73
24802.1;0.999243;0.00138067;-0.000523468;0.497761;0.000000000000000E+000;73
24849.1;2.5069;0.000485895;0.000000000000000E+000;0.000000000000000E+000;0.198326;74
24901.4;2.59933;0.001201;0.000000000000000E+000;0.000000000000000E+000;0.475528;74
24959.4;2.59942;0.00135249;0.000000000000000E+000;0.000000000000000E+000;0.533805;74
25002.7;0.9993;0.00135848;-0.000242551;0.219715;0.000000000000000E+000;74
25060.7;0.999319;0.00135848;-0.000421669;0.398955;0.000000000000000E+000;74
25118.7;0.999224;0.00135848;-0.000505561;0.482908;0.000000000000000E+000;74
25165.7;2.48934;0.000380237;0.000000000000000E+000;0.000000000000000E+000;0.15583;75
25218.7;2.59946;0.00115326;0.000000000000000E+000;0.000000000000000E+000;0.456547;75
25276.7;2.59952;0.00132307;0.000000000000000E+000;0.000000000000000E+000;0.521868;75
25319.6;0.9993;0.0013329;-0.000219248;0.19957;0.000000000000000E+000;75
25377.6;0.999281;0.0013329;-0.000404326;0.384783;0.000000000000000E+000;75
25435.6;0.999281;0.0013329;-0.000490537;0.471054;0.000000000000000E+000;75
25483.6;2.41103;3.41592e-05;0.000000000000000E+000;0.000000000000000E+000;0.014169;76
25537.4;2.59952;0.000964904;0.000000000000000E+000;0.000000000000000E+000;0.384272;76
25595.4;2.59942;0.00130645;0.000000000000000E+000;0.000000000000000E+000;0.515666;76
25643.4;1.05432;0.00134881;-0.000116387;0.0991754;0.000000000000000E+000;76
25696;0.999338;0.00134881;-0.000346714;0.329338;0.000000000000000E+000;76
25754;0.999376;0.00134881;-0.00045579;0.438492;0.000000000000000E+000;76
25802;1.47873;4.14532e-09;0.000000000000000E+000;0.000000000000000E+000;2.8033e-06;77
25854.6;2.59963;0.000909823;0.000000000000000E+000;0.000000000000000E+000;0.361753;77
25912.6;2.59938;0.0012488;0.000000000000000E+000;0.000000000000000E+000;0.492156;77
25959.5;0.999739;0.00128817;-0.000120013;0.10555;0.000000000000000E+000;77
26013.5;0.999281;0.00128817;-0.000342736;0.328428;0.000000000000000E+000;77
26071.5;0.999319;0.00128817;-0.000447385;0.433147;0.000000000000000E+000;77
26119.5;2.42426;6.86914e-05;0.000000000000000E+000;0.000000000000000E+000;0.0283354;78
26172.8;2.5994;0.000964241;0.000000000000000E+000;0.000000000000000E+000;0.381984;78
26230.8;2.59948;0.00123559;0.000000000000000E+000;0.000000000000000E+000;0.486371;78
26274.1;0.9993;0.00126413;-0.000133859;0.121743;0.000000000000000E+000;78
26332.1;0.999281;0.00126413;-0.00034937;0.337401;0.000000000000000E+000;78
26390.1;0.999395;0.00126413;-0.000445378;0.433476;0.000000000000000E+000;78
26442.2;1.2217;0.00126413;-0.000492647;0.480778;0.000000000000000E+000;78
26491.9;2.59952;0.000838721;0.000000000000000E+000;0.000000000000000E+000;0.333688;79
26549.9;2.59942;0.00123138;0.000000000000000E+000;0.000000000000000E+000;0.484742;79
26597.9;1.0204;0.00127854;-9.55023e-05;0.0850079;0.000000000000000E+000;79
26650.3;0.999319;0.00127854;-0.000315507;0.305167;0.000000000000000E+000;79
26708.3;0.999319;0.00127854;-0.000423033;0.412767;0.000000000000000E+000;79
26755.3;1.49388;4.18579e-09;0.000000000000000E+000;0.000000000000000E+000;2.80195e-06;80
26808.3;2.5995;0.000902146;0.000000000000000E+000;0.000000000000000E+000;0.356972;80
26866.3;2.59942;0.00119691;0.000000000000000E+000;0.000000000000000E+000;0.470365;80
26909.7;0.999319;0.00122863;-0.00011593;0.107309;0.000000000000000E+000;80
26967.7;0.999262;0.00122863;-0.000329928;0.321456;0.000000000000000E+000;80
27025.7;0.999262;0.00122863;-0.000426238;0.417836;0.000000000000000E+000;80
27077.7;1.2249;0.00122863;-0.000474127;0.465758;0.000000000000000E+000;80
27127.2;2.59948;0.000830153;0.000000000000000E+000;0.000000000000000E+000;0.329213;81
27185.2;2.5994;0.00119937;0.000000000000000E+000;0.000000000000000E+000;0.471249;81
27230.8;0.999815;0.00124322;-8.27218e-05;0.0753189;0.000000000000000E+000;81
27284.8;0.999281;0.00124322;-0.000302754;0.295503;0.000000000000000E+000;81
27342.8;0.999338;0.00124322;-0.000407775;0.400598;0.000000000000000E+000;81
27390.8;2.44377;6.92461e-05;0.000000000000000E+000;0.000000000000000E+000;0.0283355;82
27443.2;2.59952;0.000924574;0.000000000000000E+000;0.000000000000000E+000;0.364272;82
27501.2;2.59938;0.00116196;0.000000000000000E+000;0.000000000000000E+000;0.455593;82
27544.8;0.999319;0.00118374;-0.000145363;0.139862;0.000000000000000E+000;82
27602.8;0.999262;0.00118374;-0.000328242;0.322868;0.000000000000000E+000;82
27660.8;0.999185;0.00118374;-0.000416373;0.411062;0.000000000000000E+000;82
27708.8;2.52334;0.000350402;0.000000000000000E+000;0.000000000000000E+000;0.141664;83
27762.2;2.59952;0.00103546;0.000000000000000E+000;0.000000000000000E+000;0.406387;83
27819.2;2.5995;0.00116196;0.000000000000000E+000;0.000000000000000E+000;0.455052;83
27862.8;0.99909;0.00116196;-0.000211938;0.207763;0.000000000000000E+000;83
27920.8;0.999224;0.00116196;-0.000352093;0.348016;0.000000000000000E+000;83
27978.8;0.999453;0.00116196;-0.000425687;0.421661;0.000000000000000E+000;83
28020.2;2.59936;0.000539115;0.000000000000000E+000;0.000000000000000E+000;0.215057;84
28078.2;2.59936;0.0010756;0.000000000000000E+000;0.000000000000000E+000;0.421442;84
28125.2;1.13306;0.00114253;-1.60581e-05;0.0141698;0.000000000000000E+000;84
28178.7;0.999166;0.00114253;-0.000257618;0.254716;0.000000000000000E+000;84
28236.7;0.9993;0.00114253;-0.000369879;0.367056;0.000000000000000E+000;84
28286.7;1.27416;0.00114253;-0.000420938;0.418152;0.000000000000000E+000;84
28337.7;2.59948;0.000844118;0.000000000000000E+000;0.000000000000000E+000;0.331799;85
28395.7;2.59946;0.00109662;0.000000000000000E+000;0.000000000000000E+000;0.428936;85
28437.8;0.999376;0.00112088;-0.000117317;0.115128;0.000000000000000E+000;85
28495.8;0.999357;0.00112088;-0.00029956;0.297496;0.000000000000000E+000;85
28553.8;0.999243;0.00112088;-0.000388389;0.386386;0.000000000000000E+000;85
28600.8;1.49837;4.19583e-09;0.000000000000000E+000;0.000000000000000E+000;2.80026e-06;86
28654.6;2.59942;0.000881605;0.000000000000000E+000;0.000000000000000E+000;0.346482;86
28712.6;2.59955;0.00111963;0.000000000000000E+000;0.000000000000000E+000;0.438049;86
28755.6;0.9993;0.00114111;-0.00012854;0.126957;0.000000000000000E+000;86
28813.6;0.999376;0.00114111;-0.00029949;0.298029;0.000000000000000E+000;86
28871.6;0.999262;0.00114111;-0.000384748;0.383345;0.000000000000000E+000;86
28918.6;2.56322;0.000389807;0.000000000000000E+000;0.000000000000000E+000;0.155832;87
28971.4;2.59942;0.000985228;0.000000000000000E+000;0.000000000000000E+000;0.385105;87
29024.4;2.46954;0.00108415;0.000000000000000E+000;0.000000000000000E+000;0.42316;87
29073.2;0.9993;0.00108415;-0.000214161;0.213221;0.000000000000000E+000;87
29131.2;0.999224;0.00108415;-0.000335017;0.33416;0.000000000000000E+000;87
29184.2;1.20037;0.00108415;-0.000396455;0.395642;0.000000000000000E+000;87
29232.2;2.59948;0.000745305;0.000000000000000E+000;0.000000000000000E+000;0.292381;88
29290.2;2.5994;0.00103735;0.000000000000000E+000;0.000000000000000E+000;0.404732;88
29333.4;0.999414;0.00106745;-9.54332e-05;0.0946788;0.000000000000000E+000;88
29391.4;0.999281;0.00106745;-0.00027623;0.275602;0.000000000000000E+000;88
29449.4;0.999243;0.00106745;-0.000365225;0.364657;0.000000000000000E+000;88
29496.4;2.54407;0.000318573;0.000000000000000E+000;0.000000000000000E+000;0.1275;89
29549.2;2.59933;0.000944133;0.000000000000000E+000;0.000000000000000E+000;0.368524;89
29602.3;2.50163;0.00104874;0.000000000000000E+000;0.000000000000000E+000;0.408766;89
29648.9;0.999204;0.00104874;-0.000196363;0.195934;0.000000000000000E+000;89
29706.9;0.999281;0.00104874;-0.000318827;0.318484;0.000000000000000E+000;89
29760;1.2048;0.00104874;-0.000381394;0.381094;0.000000000000000E+000;89
29807.5;2.59954;0.000728647;0.000000000000000E+000;0.000000000000000E+000;0.285133;90
29865.5;2.59948;0.00100034;0.000000000000000E+000;0.000000000000000E+000;0.389654;90
29906.9;0.999395;0.00102573;-9.63071e-05;0.0960661;0.000000000000000E+000;90
29964.9;0.999338;0.00102573;-0.000267571;0.267451;0.000000000000000E+000;90
30022.9;0.999281;0.00102573;-0.00035392;0.35386;0.000000000000000E+000;90
30069.9;2.57634;0.000356408;0.000000000000000E+000;0.000000000000000E+000;0.141664;91
30122.7;2.59929;0.000924989;0.000000000000000E+000;0.000000000000000E+000;0.360426;91
30173.8;2.42481;0.00101209;0.000000000000000E+000;0.000000000000000E+000;0.393935;91
30222.8;0.999338;0.00101209;-0.00020258;0.202656;0.000000000000000E+000;91
30280.8;0.9993;0.00101209;-0.000314739;0.314895;0.000000000000000E+000;91
30331.9;1.25774;0.00101209;-0.000369958;0.370153;0.000000000000000E+000;91
30381.7;2.5994;0.000763943;0.000000000000000E+000;0.000000000000000E+000;0.298159;92
30439.7;2.59952;0.000980942;0.000000000000000E+000;0.000000000000000E+000;0.381638;92
30483.5;0.999243;0.000996686;-0.000129751;0.129829;0.000000000000000E+000;92
30541.5;0.999376;0.000996686;-0.000274289;0.274464;0.000000000000000E+000;92
30599.5;0.999281;0.000996686;-0.00035176;0.35199;0.000000000000000E+000;92
30642.5;2.59952;0.000483206;0.000000000000000E+000;0.000000000000000E+000;0.189785;93
30700.5;2.59942;0.000930059;0.000000000000000E+000;0.000000000000000E+000;0.361688;93
30743.2;0.999281;0.000977516;-3.66093e-05;0.036628;0.000000000000000E+000;93
30801.2;0.999338;0.000977516;-0.000230614;0.230767;0.000000000000000E+000;93
30859.2;0.999262;0.000977516;-0.000323582;0.323801;0.000000000000000E+000;93
30906.2;2.51546;0.000177395;0.000000000000000E+000;0.000000000000000E+000;0.0708343;94
30958.5;2.59952;0.000847752;0.000000000000000E+000;0.000000000000000E+000;0.329798;94
31012.6;2.56905;0.000964796;0.000000000000000E+000;0.000000000000000E+000;0.374824;94
31059.1;0.999338;0.000964796;-0.00017304;0.173154;0.000000000000000E+000;94
31117.1;0.999128;0.000964796;-0.000288932;0.289127;0.000000000000000E+000;94
31170.1;1.20633;0.000964796;-0.000349829;0.350067;0.000000000000000E+000;94
31217.4;2.59959;0.000697627;0.000000000000000E+000;0.000000000000000E+000;0.271712;95
31275.4;2.59936;0.000928095;0.000000000000000E+000;0.000000000000000E+000;0.360373;95
31317.8;0.999491;0.000945089;-0.00011303;0.1131;0.000000000000000E+000;95
31375.8;0.999224;0.000945089;-0.000255279;0.255449;0.000000000000000E+000;95
31433.8;0.999185;0.000945089;-0.000332282;0.332506;0.000000000000000E+000;95
31475;2.59954;0.000466176;0.000000000000000E+000;0.000000000000000E+000;0.182345;96
31533;2.59946;0.000882978;0.000000000000000E+000;0.000000000000000E+000;0.342688;96
31576.4;0.999338;0.000924311;-5.34344e-05;0.0534645;0.000000000000000E+000;96
31634.4;0.999243;0.000924311;-0.000224867;0.225014;0.000000000000000E+000;96
31692.4;0.999166;0.000924311;-0.000311571;0.311779;0.000000000000000E+000;96
31740.4;2.55698;0.000250976;0.000000000000000E+000;0.000000000000000E+000;0.0991668;97
31794.2;2.59946;0.000840578;0.000000000000000E+000;0.000000000000000E+000;0.326153;97
31844.2;2.4062;0.000922809;0.000000000000000E+000;0.000000000000000E+000;0.357788;97
31895.5;0.999243;0.000922809;-0.000186736;0.186861;0.000000000000000E+000;97
31953.5;0.999357;0.000922809;-0.00028714;0.287334;0.000000000000000E+000;97
32000.5;1.57357;4.39968e-09;0.000000000000000E+000;0.000000000000000E+000;2.79598e-06;98
32053.1;2.59931;0.000754288;0.000000000000000E+000;0.000000000000000E+000;0.292675;98
32111.1;2.59944;0.0009014;0.000000000000000E+000;0.000000000000000E+000;0.349269;98
32153.3;0.999414;0.000901401;-0.000147981;0.148072;0.000000000000000E+000;98
32211.3;0.999243;0.000901401;-0.000262911;0.263083;0.000000000000000E+000;98
32269.3;0.999338;0.000901401;-0.000329577;0.329797;0.000000000000000E+000;98
32312;2.5994;0.000558911;0.000000000000000E+000;0.000000000000000E+000;0.21734;99
32370;2.59936;0.000881384;0.000000000000000E+000;0.000000000000000E+000;0.341394;99
32412.1;0.999243;0.000910281;-7.4514e-05;0.0745573;0.000000000000000E+000;99
32470.1;0.999434;0.000910281;-0.000224272;0.224418;0.000000000000000E+000;99
32528.1;0.999319;0.000910281;-0.000304092;0.304293;0.000000000000000E+000;99
32551.1;1.28665;0.000910281;-0.000322141;0.322354;0.000000000000000E+000;99